timestamp,accX,accY,accZ,pressure,gyroX,gyroY,gyroZ
0.0,-100000.0,-7812.0,-781.0,2062.0,-49.0,25.0,-36.0
2.0,-100000.0,-7779.458333333333,-781.0,2061.625,-49.041666666666664,25.041666666666668,-36.041666666666664
4.0,-100000.0,-7746.916666666667,-781.0,2061.25,-49.083333333333336,25.083333333333332,-36.083333333333336
6.0,-100000.0,-7714.375,-781.0,2060.875,-49.125,25.125,-36.125
8.0,-100000.0,-7681.833333333333,-781.0,2060.5,-49.166666666666664,25.166666666666668,-36.166666666666664
10.0,-100000.0,-7649.291666666667,-781.0,2060.125,-49.208333333333336,25.208333333333332,-36.208333333333336
12.0,-100000.0,-7616.75,-781.0,2059.75,-49.25,25.25,-36.25
14.0,-100000.0,-7584.208333333333,-781.0,2059.375,-49.291666666666664,25.291666666666668,-36.291666666666664
16.0,-100000.0,-7551.666666666667,-781.0,2059.0,-49.333333333333336,25.333333333333332,-36.333333333333336
18.0,-100000.0,-7519.125,-781.0,2058.625,-49.375,25.375,-36.375
20.0,-100000.0,-7486.583333333333,-781.0,2058.25,-49.416666666666664,25.416666666666668,-36.416666666666664
22.0,-100000.0,-7454.041666666667,-781.0,2057.875,-49.458333333333336,25.458333333333332,-36.458333333333336
24.0,-100000.0,-7421.5,-781.0,2057.5,-49.5,25.5,-36.5
26.0,-100000.0,-7388.958333333333,-781.0,2057.125,-49.541666666666664,25.541666666666668,-36.541666666666664
28.0,-100000.0,-7356.416666666667,-781.0,2056.75,-49.583333333333336,25.583333333333332,-36.583333333333336
30.0,-100000.0,-7323.875,-781.0,2056.375,-49.625,25.625,-36.625
32.0,-100000.0,-7291.333333333333,-781.0,2056.0,-49.666666666666664,25.666666666666668,-36.666666666666664
34.0,-100000.0,-7258.791666666667,-781.0,2055.625,-49.708333333333336,25.708333333333332,-36.708333333333336
36.0,-100000.0,-7226.25,-781.0,2055.25,-49.75,25.75,-36.75
38.0,-100000.0,-7193.708333333333,-781.0,2054.875,-49.791666666666664,25.791666666666668,-36.791666666666664
40.0,-100000.0,-7161.166666666667,-781.0,2054.5,-49.833333333333336,25.833333333333332,-36.833333333333336
42.0,-100000.0,-7128.625,-781.0,2054.125,-49.875,25.875,-36.875
44.0,-100000.0,-7096.083333333333,-781.0,2053.75,-49.916666666666664,25.916666666666668,-36.916666666666664
46.0,-100000.0,-7063.541666666667,-781.0,2053.375,-49.958333333333336,25.958333333333332,-36.958333333333336
48.0,-100000.0,-7047.270833333334,-781.0,2053.1875,-49.97916666666667,25.979166666666664,-36.97916666666667
50.0,-100000.0,-7031.0,-781.0,2053.0,-50.0,26.0,-37.0
52.0,-99967.41666666667,-7063.541666666667,-781.0,2053.5833333333335,-50.041666666666664,26.041666666666668,-37.0
54.0,-99934.83333333333,-7096.083333333333,-781.0,2054.1666666666665,-50.083333333333336,26.083333333333332,-37.0
56.0,-99902.25,-7128.625,-781.0,2054.75,-50.125,26.125,-37.0
58.0,-99869.66666666667,-7161.166666666667,-781.0,2055.3333333333335,-50.166666666666664,26.166666666666668,-37.0
60.0,-99837.08333333333,-7193.708333333333,-781.0,2055.9166666666665,-50.208333333333336,26.208333333333332,-37.0
62.0,-99804.5,-7226.25,-781.0,2056.5,-50.25,26.25,-37.0
64.0,-99771.91666666667,-7258.791666666667,-781.0,2057.0833333333335,-50.291666666666664,26.291666666666668,-37.0
66.0,-99739.33333333333,-7291.333333333333,-781.0,2057.6666666666665,-50.333333333333336,26.333333333333332,-37.0
68.0,-99706.75,-7323.875,-781.0,2058.25,-50.375,26.375,-37.0
70.0,-99674.16666666667,-7356.416666666667,-781.0,2058.8333333333335,-50.416666666666664,26.416666666666668,-37.0
72.0,-99641.58333333333,-7388.958333333333,-781.0,2059.4166666666665,-50.458333333333336,26.458333333333332,-37.0
74.0,-99609.0,-7421.5,-781.0,2060.0,-50.5,26.5,-37.0
76.0,-99576.41666666667,-7454.041666666667,-781.0,2060.5833333333335,-50.541666666666664,26.541666666666668,-37.0
78.0,-99543.83333333333,-7486.583333333333,-781.0,2061.1666666666665,-50.583333333333336,26.583333333333332,-37.0
80.0,-99511.25,-7519.125,-781.0,2061.75,-50.625,26.625,-37.0
82.0,-99478.66666666667,-7551.666666666667,-781.0,2062.3333333333335,-50.666666666666664,26.666666666666668,-37.0
84.0,-99446.08333333333,-7584.208333333333,-781.0,2062.9166666666665,-50.708333333333336,26.708333333333332,-37.0
86.0,-99413.5,-7616.75,-781.0,2063.5,-50.75,26.75,-37.0
88.0,-99380.91666666667,-7649.291666666667,-781.0,2064.0833333333335,-50.791666666666664,26.791666666666668,-37.0
90.0,-99348.33333333333,-7681.833333333333,-781.0,2064.6666666666665,-50.833333333333336,26.833333333333332,-37.0
92.0,-99315.75,-7714.375,-781.0,2065.25,-50.875,26.875,-37.0
94.0,-99283.16666666667,-7746.916666666667,-781.0,2065.8333333333335,-50.916666666666664,26.916666666666668,-37.0
96.0,-99250.58333333333,-7779.458333333333,-781.0,2066.4166666666665,-50.958333333333336,26.958333333333332,-37.0
98.0,-99234.29166666666,-7795.729166666666,-781.0,2066.708333333333,-50.97916666666667,26.979166666666664,-37.0
100.0,-99218.0,-7812.0,-781.0,2067.0,-51.0,27.0,-37.0
102.0,-99218.0,-7812.0,-813.5416666666666,2066.7916666666665,-50.958333333333336,27.083333333333332,-37.0
104.0,-99218.0,-7812.0,-846.0833333333334,2066.5833333333335,-50.916666666666664,27.166666666666668,-37.0
106.0,-99218.0,-7812.0,-878.625,2066.375,-50.875,27.25,-37.0
108.0,-99218.0,-7812.0,-911.1666666666666,2066.1666666666665,-50.833333333333336,27.333333333333332,-37.0
110.0,-99218.0,-7812.0,-943.7083333333333,2065.9583333333335,-50.791666666666664,27.416666666666668,-37.0
112.0,-99218.0,-7812.0,-976.25,2065.75,-50.75,27.5,-37.0
114.0,-99218.0,-7812.0,-1008.7916666666666,2065.5416666666665,-50.708333333333336,27.583333333333332,-37.0
116.0,-99218.0,-7812.0,-1041.3333333333333,2065.3333333333335,-50.666666666666664,27.666666666666668,-37.0
118.0,-99218.0,-7812.0,-1073.875,2065.125,-50.625,27.75,-37.0
120.0,-99218.0,-7812.0,-1106.4166666666665,2064.9166666666665,-50.583333333333336,27.833333333333332,-37.0
122.0,-99218.0,-7812.0,-1138.9583333333333,2064.7083333333335,-50.541666666666664,27.916666666666668,-37.0
124.0,-99218.0,-7812.0,-1171.5,2064.5,-50.5,28.0,-37.0
126.0,-99218.0,-7812.0,-1204.0416666666665,2064.2916666666665,-50.458333333333336,28.083333333333332,-37.0
128.0,-99218.0,-7812.0,-1236.5833333333333,2064.0833333333335,-50.416666666666664,28.166666666666668,-37.0
130.0,-99218.0,-7812.0,-1269.125,2063.875,-50.375,28.25,-37.0
132.0,-99218.0,-7812.0,-1301.6666666666665,2063.6666666666665,-50.333333333333336,28.333333333333332,-37.0
134.0,-99218.0,-7812.0,-1334.2083333333333,2063.4583333333335,-50.291666666666664,28.416666666666668,-37.0
136.0,-99218.0,-7812.0,-1366.75,2063.25,-50.25,28.5,-37.0
138.0,-99218.0,-7812.0,-1399.2916666666665,2063.0416666666665,-50.208333333333336,28.583333333333332,-37.0
140.0,-99218.0,-7812.0,-1431.8333333333333,2062.8333333333335,-50.166666666666664,28.666666666666668,-37.0
142.0,-99218.0,-7812.0,-1464.375,2062.625,-50.125,28.75,-37.0
144.0,-99218.0,-7812.0,-1496.9166666666665,2062.4166666666665,-50.083333333333336,28.833333333333332,-37.0
146.0,-99218.0,-7812.0,-1529.4583333333333,2062.2083333333335,-50.041666666666664,28.916666666666668,-37.0
148.0,-99218.0,-7812.0,-1545.7291666666665,2062.104166666667,-50.02083333333333,28.958333333333336,-37.0
150.0,-99218.0,-7812.0,-1562.0,2062.0,-50.0,29.0,-37.0
152.0,-99218.0,-7779.458333333333,-1529.4583333333333,2061.4583333333335,-50.041666666666664,29.083333333333332,-37.041666666666664
154.0,-99218.0,-7746.916666666667,-1496.9166666666667,2060.9166666666665,-50.083333333333336,29.166666666666668,-37.083333333333336
156.0,-99218.0,-7714.375,-1464.375,2060.375,-50.125,29.25,-37.125
158.0,-99218.0,-7681.833333333333,-1431.8333333333333,2059.8333333333335,-50.166666666666664,29.333333333333332,-37.166666666666664
160.0,-99218.0,-7649.291666666667,-1399.2916666666667,2059.2916666666665,-50.208333333333336,29.416666666666668,-37.208333333333336
162.0,-99218.0,-7616.75,-1366.75,2058.75,-50.25,29.5,-37.25
164.0,-99218.0,-7584.208333333333,-1334.2083333333333,2058.2083333333335,-50.291666666666664,29.583333333333332,-37.291666666666664
166.0,-99218.0,-7551.666666666667,-1301.6666666666667,2057.6666666666665,-50.333333333333336,29.666666666666668,-37.333333333333336
168.0,-99218.0,-7519.125,-1269.125,2057.125,-50.375,29.75,-37.375
170.0,-99218.0,-7486.583333333333,-1236.5833333333335,2056.5833333333335,-50.416666666666664,29.833333333333332,-37.416666666666664
172.0,-99218.0,-7454.041666666667,-1204.0416666666667,2056.0416666666665,-50.458333333333336,29.916666666666668,-37.458333333333336
174.0,-99218.0,-7421.5,-1171.5,2055.5,-50.5,30.0,-37.5
176.0,-99218.0,-7388.958333333333,-1138.9583333333335,2054.9583333333335,-50.541666666666664,30.083333333333332,-37.541666666666664
178.0,-99218.0,-7356.416666666667,-1106.4166666666667,2054.4166666666665,-50.583333333333336,30.166666666666668,-37.583333333333336
180.0,-99218.0,-7323.875,-1073.875,2053.875,-50.625,30.25,-37.625
182.0,-99218.0,-7291.333333333333,-1041.3333333333335,2053.3333333333335,-50.666666666666664,30.333333333333332,-37.666666666666664
184.0,-99218.0,-7258.791666666667,-1008.7916666666667,2052.7916666666665,-50.708333333333336,30.416666666666668,-37.708333333333336
186.0,-99218.0,-7226.25,-976.25,2052.25,-50.75,30.5,-37.75
188.0,-99218.0,-7193.708333333333,-943.7083333333334,2051.7083333333335,-50.791666666666664,30.583333333333332,-37.791666666666664
190.0,-99218.0,-7161.166666666667,-911.1666666666667,2051.1666666666665,-50.833333333333336,30.666666666666668,-37.833333333333336
192.0,-99218.0,-7128.625,-878.625,2050.625,-50.875,30.75,-37.875
194.0,-99218.0,-7096.083333333333,-846.0833333333334,2050.0833333333335,-50.916666666666664,30.833333333333332,-37.916666666666664
196.0,-99218.0,-7063.541666666667,-813.5416666666667,2049.5416666666665,-50.958333333333336,30.916666666666668,-37.958333333333336
198.0,-99218.0,-7047.270833333334,-797.2708333333334,2049.270833333333,-50.97916666666667,30.958333333333336,-37.97916666666667
200.0,-99218.0,-7031.0,-781.0,2049.0,-51.0,31.0,-38.0
202.0,-99218.0,-6998.458333333333,-748.4583333333334,2049.3333333333335,-50.958333333333336,31.0,-37.958333333333336
204.0,-99218.0,-6965.916666666667,-715.9166666666666,2049.6666666666665,-50.916666666666664,31.0,-37.916666666666664
206.0,-99218.0,-6933.375,-683.375,2050.0,-50.875,31.0,-37.875
208.0,-99218.0,-6900.833333333333,-650.8333333333334,2050.3333333333335,-50.833333333333336,31.0,-37.833333333333336
210.0,-99218.0,-6868.291666666667,-618.2916666666667,2050.6666666666665,-50.791666666666664,31.0,-37.791666666666664
212.0,-99218.0,-6835.75,-585.75,2051.0,-50.75,31.0,-37.75
214.0,-99218.0,-6803.208333333333,-553.2083333333334,2051.3333333333335,-50.708333333333336,31.0,-37.708333333333336
216.0,-99218.0,-6770.666666666667,-520.6666666666667,2051.6666666666665,-50.666666666666664,31.0,-37.666666666666664
218.0,-99218.0,-6738.125,-488.125,2052.0,-50.625,31.0,-37.625
220.0,-99218.0,-6705.583333333333,-455.58333333333337,2052.3333333333335,-50.583333333333336,31.0,-37.583333333333336
222.0,-99218.0,-6673.041666666667,-423.0416666666667,2052.6666666666665,-50.541666666666664,31.0,-37.541666666666664
224.0,-99218.0,-6640.5,-390.5,2053.0,-50.5,31.0,-37.5
226.0,-99218.0,-6607.958333333333,-357.95833333333337,2053.3333333333335,-50.458333333333336,31.0,-37.458333333333336
228.0,-99218.0,-6575.416666666667,-325.4166666666667,2053.6666666666665,-50.416666666666664,31.0,-37.416666666666664
230.0,-99218.0,-6542.875,-292.87500000000006,2054.0,-50.375,31.0,-37.375
232.0,-99218.0,-6510.333333333333,-260.33333333333337,2054.3333333333335,-50.333333333333336,31.0,-37.333333333333336
234.0,-99218.0,-6477.791666666667,-227.79166666666674,2054.6666666666665,-50.291666666666664,31.0,-37.291666666666664
236.0,-99218.0,-6445.25,-195.25,2055.0,-50.25,31.0,-37.25
238.0,-99218.0,-6412.708333333333,-162.70833333333337,2055.3333333333335,-50.208333333333336,31.0,-37.208333333333336
240.0,-99218.0,-6380.166666666667,-130.16666666666674,2055.6666666666665,-50.166666666666664,31.0,-37.166666666666664
242.0,-99218.0,-6347.625,-97.625,2056.0,-50.125,31.0,-37.125
244.0,-99218.0,-6315.083333333333,-65.08333333333337,2056.3333333333335,-50.083333333333336,31.0,-37.083333333333336
246.0,-99218.0,-6282.541666666667,-32.54166666666674,2056.6666666666665,-50.041666666666664,31.0,-37.041666666666664
248.0,-99218.0,-6266.270833333334,-16.27083333333337,2056.833333333333,-50.02083333333333,31.0,-37.02083333333333
250.0,-99218.0,-6250.0,0.0,2057.0,-50.0,31.0,-37.0
252.0,-99250.58333333333,-6217.416666666667,-65.08333333333333,2057.1666666666665,-50.0,30.875,-37.0
254.0,-99283.16666666667,-6184.833333333333,-130.16666666666666,2057.3333333333335,-50.0,30.75,-37.0
256.0,-99315.75,-6152.25,-195.25,2057.5,-50.0,30.625,-37.0
258.0,-99348.33333333333,-6119.666666666667,-260.3333333333333,2057.6666666666665,-50.0,30.5,-37.0
260.0,-99380.91666666667,-6087.083333333333,-325.41666666666663,2057.8333333333335,-50.0,30.375,-37.0
262.0,-99413.5,-6054.5,-390.5,2058.0,-50.0,30.25,-37.0
264.0,-99446.08333333333,-6021.916666666667,-455.5833333333333,2058.1666666666665,-50.0,30.125,-37.0
266.0,-99478.66666666667,-5989.333333333333,-520.6666666666666,2058.3333333333335,-50.0,30.0,-37.0
268.0,-99511.25,-5956.75,-585.75,2058.5,-50.0,29.875,-37.0
270.0,-99543.83333333333,-5924.166666666667,-650.8333333333333,2058.6666666666665,-50.0,29.75,-37.0
272.0,-99576.41666666667,-5891.583333333333,-715.9166666666666,2058.8333333333335,-50.0,29.625,-37.0
274.0,-99609.0,-5859.0,-781.0,2059.0,-50.0,29.5,-37.0
276.0,-99641.58333333333,-5826.416666666667,-846.0833333333333,2059.1666666666665,-50.0,29.375,-37.0
278.0,-99674.16666666667,-5793.833333333333,-911.1666666666666,2059.3333333333335,-50.0,29.25,-37.0
280.0,-99706.75,-5761.25,-976.2499999999999,2059.5,-50.0,29.125,-37.0
282.0,-99739.33333333333,-5728.666666666667,-1041.3333333333333,2059.6666666666665,-50.0,29.0,-37.0
284.0,-99771.91666666667,-5696.083333333333,-1106.4166666666665,2059.8333333333335,-50.0,28.875,-37.0
286.0,-99804.5,-5663.5,-1171.5,2060.0,-50.0,28.75,-37.0
288.0,-99837.08333333333,-5630.916666666667,-1236.5833333333333,2060.1666666666665,-50.0,28.625,-37.0
290.0,-99869.66666666667,-5598.333333333333,-1301.6666666666665,2060.3333333333335,-50.0,28.5,-37.0
292.0,-99902.25,-5565.75,-1366.75,2060.5,-50.0,28.375,-37.0
294.0,-99934.83333333333,-5533.166666666667,-1431.8333333333333,2060.6666666666665,-50.0,28.25,-37.0
296.0,-99967.41666666667,-5500.583333333333,-1496.9166666666665,2060.8333333333335,-50.0,28.125,-37.0
298.0,-99983.70833333334,-5484.291666666666,-1529.4583333333333,2060.916666666667,-50.0,28.0625,-37.0
300.0,-100000.0,-5468.0,-1562.0,2061.0,-50.0,28.0,-37.0
302.0,-100000.0,-5402.916666666667,-1594.5416666666667,2061.0,-50.083333333333336,28.0,-36.958333333333336
304.0,-100000.0,-5337.833333333333,-1627.0833333333333,2061.0,-50.166666666666664,28.0,-36.916666666666664
306.0,-100000.0,-5272.75,-1659.625,2061.0,-50.25,28.0,-36.875
308.0,-100000.0,-5207.666666666667,-1692.1666666666667,2061.0,-50.333333333333336,28.0,-36.833333333333336
310.0,-100000.0,-5142.583333333333,-1724.7083333333333,2061.0,-50.416666666666664,28.0,-36.791666666666664
312.0,-100000.0,-5077.5,-1757.25,2061.0,-50.5,28.0,-36.75
314.0,-100000.0,-5012.416666666667,-1789.7916666666667,2061.0,-50.583333333333336,28.0,-36.708333333333336
316.0,-100000.0,-4947.333333333333,-1822.3333333333333,2061.0,-50.666666666666664,28.0,-36.666666666666664
318.0,-100000.0,-4882.25,-1854.875,2061.0,-50.75,28.0,-36.625
320.0,-100000.0,-4817.166666666667,-1887.4166666666665,2061.0,-50.833333333333336,28.0,-36.583333333333336
322.0,-100000.0,-4752.083333333333,-1919.9583333333333,2061.0,-50.916666666666664,28.0,-36.541666666666664
324.0,-100000.0,-4687.0,-1952.5,2061.0,-51.0,28.0,-36.5
326.0,-100000.0,-4621.916666666667,-1985.0416666666665,2061.0,-51.083333333333336,28.0,-36.458333333333336
328.0,-100000.0,-4556.833333333333,-2017.5833333333333,2061.0,-51.166666666666664,28.0,-36.416666666666664
330.0,-100000.0,-4491.75,-2050.125,2061.0,-51.25,28.0,-36.375
332.0,-100000.0,-4426.666666666667,-2082.6666666666665,2061.0,-51.333333333333336,28.0,-36.333333333333336
334.0,-100000.0,-4361.583333333334,-2115.208333333333,2061.0,-51.416666666666664,28.0,-36.291666666666664
336.0,-100000.0,-4296.5,-2147.75,2061.0,-51.5,28.0,-36.25
338.0,-100000.0,-4231.416666666667,-2180.2916666666665,2061.0,-51.583333333333336,28.0,-36.208333333333336
340.0,-100000.0,-4166.333333333334,-2212.833333333333,2061.0,-51.666666666666664,28.0,-36.166666666666664
342.0,-100000.0,-4101.25,-2245.375,2061.0,-51.75,28.0,-36.125
344.0,-100000.0,-4036.166666666667,-2277.9166666666665,2061.0,-51.833333333333336,28.0,-36.083333333333336
346.0,-100000.0,-3971.0833333333335,-2310.458333333333,2061.0,-51.916666666666664,28.0,-36.041666666666664
348.0,-100000.0,-3938.541666666667,-2326.7291666666665,2061.0,-51.95833333333333,28.0,-36.02083333333333
350.0,-100000.0,-3906.0,-2343.0,2061.0,-52.0,28.0,-36.0
352.0,-100000.0,-4003.6666666666665,-2310.4583333333335,2060.8333333333335,-52.041666666666664,28.0,-35.958333333333336
354.0,-100000.0,-4101.333333333333,-2277.9166666666665,2060.6666666666665,-52.083333333333336,28.0,-35.916666666666664
356.0,-100000.0,-4199.0,-2245.375,2060.5,-52.125,28.0,-35.875
358.0,-100000.0,-4296.666666666667,-2212.8333333333335,2060.3333333333335,-52.166666666666664,28.0,-35.833333333333336
360.0,-100000.0,-4394.333333333333,-2180.2916666666665,2060.1666666666665,-52.208333333333336,28.0,-35.791666666666664
362.0,-100000.0,-4492.0,-2147.75,2060.0,-52.25,28.0,-35.75
364.0,-100000.0,-4589.666666666667,-2115.2083333333335,2059.8333333333335,-52.291666666666664,28.0,-35.708333333333336
366.0,-100000.0,-4687.333333333333,-2082.6666666666665,2059.6666666666665,-52.333333333333336,28.0,-35.666666666666664
368.0,-100000.0,-4785.0,-2050.125,2059.5,-52.375,28.0,-35.625
370.0,-100000.0,-4882.666666666667,-2017.5833333333335,2059.3333333333335,-52.416666666666664,28.0,-35.583333333333336
372.0,-100000.0,-4980.333333333334,-1985.0416666666667,2059.1666666666665,-52.458333333333336,28.0,-35.541666666666664
374.0,-100000.0,-5078.0,-1952.5,2059.0,-52.5,28.0,-35.5
376.0,-100000.0,-5175.666666666667,-1919.9583333333335,2058.8333333333335,-52.541666666666664,28.0,-35.458333333333336
378.0,-100000.0,-5273.333333333334,-1887.4166666666667,2058.6666666666665,-52.583333333333336,28.0,-35.416666666666664
380.0,-100000.0,-5371.0,-1854.875,2058.5,-52.625,28.0,-35.375
382.0,-100000.0,-5468.666666666667,-1822.3333333333335,2058.3333333333335,-52.666666666666664,28.0,-35.333333333333336
384.0,-100000.0,-5566.333333333334,-1789.7916666666667,2058.1666666666665,-52.708333333333336,28.0,-35.291666666666664
386.0,-100000.0,-5664.0,-1757.25,2058.0,-52.75,28.0,-35.25
388.0,-100000.0,-5761.666666666667,-1724.7083333333335,2057.8333333333335,-52.791666666666664,28.0,-35.208333333333336
390.0,-100000.0,-5859.333333333334,-1692.1666666666667,2057.6666666666665,-52.833333333333336,28.0,-35.166666666666664
392.0,-100000.0,-5957.0,-1659.625,2057.5,-52.875,28.0,-35.125
394.0,-100000.0,-6054.666666666667,-1627.0833333333335,2057.3333333333335,-52.916666666666664,28.0,-35.083333333333336
396.0,-100000.0,-6152.333333333334,-1594.5416666666667,2057.1666666666665,-52.958333333333336,28.0,-35.041666666666664
398.0,-100000.0,-6201.166666666667,-1578.2708333333335,2057.083333333333,-52.97916666666667,28.0,-35.02083333333333
400.0,-100000.0,-6250.0,-1562.0,2057.0,-53.0,28.0,-35.0
402.0,-100000.0,-6250.0,-1529.4583333333333,2057.4166666666665,-53.041666666666664,28.041666666666668,-34.916666666666664
404.0,-100000.0,-6250.0,-1496.9166666666667,2057.8333333333335,-53.083333333333336,28.083333333333332,-34.833333333333336
406.0,-100000.0,-6250.0,-1464.375,2058.25,-53.125,28.125,-34.75
408.0,-100000.0,-6250.0,-1431.8333333333333,2058.6666666666665,-53.166666666666664,28.166666666666668,-34.666666666666664
410.0,-100000.0,-6250.0,-1399.2916666666667,2059.0833333333335,-53.208333333333336,28.208333333333332,-34.583333333333336
412.0,-100000.0,-6250.0,-1366.75,2059.5,-53.25,28.25,-34.5
414.0,-100000.0,-6250.0,-1334.2083333333333,2059.9166666666665,-53.291666666666664,28.291666666666668,-34.416666666666664
416.0,-100000.0,-6250.0,-1301.6666666666667,2060.3333333333335,-53.333333333333336,28.333333333333332,-34.333333333333336
418.0,-100000.0,-6250.0,-1269.125,2060.75,-53.375,28.375,-34.25
420.0,-100000.0,-6250.0,-1236.5833333333335,2061.1666666666665,-53.416666666666664,28.416666666666668,-34.166666666666664
422.0,-100000.0,-6250.0,-1204.0416666666667,2061.5833333333335,-53.458333333333336,28.458333333333332,-34.083333333333336
424.0,-100000.0,-6250.0,-1171.5,2062.0,-53.5,28.5,-34.0
426.0,-100000.0,-6250.0,-1138.9583333333335,2062.4166666666665,-53.541666666666664,28.541666666666668,-33.916666666666664
428.0,-100000.0,-6250.0,-1106.4166666666667,2062.8333333333335,-53.583333333333336,28.583333333333332,-33.833333333333336
430.0,-100000.0,-6250.0,-1073.875,2063.25,-53.625,28.625,-33.75
432.0,-100000.0,-6250.0,-1041.3333333333335,2063.6666666666665,-53.666666666666664,28.666666666666668,-33.666666666666664
434.0,-100000.0,-6250.0,-1008.7916666666667,2064.0833333333335,-53.708333333333336,28.708333333333332,-33.583333333333336
436.0,-100000.0,-6250.0,-976.25,2064.5,-53.75,28.75,-33.5
438.0,-100000.0,-6250.0,-943.7083333333334,2064.9166666666665,-53.791666666666664,28.791666666666668,-33.416666666666664
440.0,-100000.0,-6250.0,-911.1666666666667,2065.3333333333335,-53.833333333333336,28.833333333333332,-33.333333333333336
442.0,-100000.0,-6250.0,-878.625,2065.75,-53.875,28.875,-33.25
444.0,-100000.0,-6250.0,-846.0833333333334,2066.1666666666665,-53.916666666666664,28.916666666666668,-33.166666666666664
446.0,-100000.0,-6250.0,-813.5416666666667,2066.5833333333335,-53.958333333333336,28.958333333333332,-33.083333333333336
448.0,-100000.0,-6250.0,-797.2708333333334,2066.791666666667,-53.97916666666667,28.979166666666664,-33.04166666666667
450.0,-100000.0,-6250.0,-781.0,2067.0,-54.0,29.0,-33.0
452.0,-100032.54166666667,-6250.0,-781.0,2067.0416666666665,-54.0,29.0,-32.958333333333336
454.0,-100065.08333333333,-6250.0,-781.0,2067.0833333333335,-54.0,29.0,-32.916666666666664
456.0,-100097.625,-6250.0,-781.0,2067.125,-54.0,29.0,-32.875
458.0,-100130.16666666667,-6250.0,-781.0,2067.1666666666665,-54.0,29.0,-32.833333333333336
460.0,-100162.70833333333,-6250.0,-781.0,2067.2083333333335,-54.0,29.0,-32.791666666666664
462.0,-100195.25,-6250.0,-781.0,2067.25,-54.0,29.0,-32.75
464.0,-100227.79166666667,-6250.0,-781.0,2067.2916666666665,-54.0,29.0,-32.708333333333336
466.0,-100260.33333333333,-6250.0,-781.0,2067.3333333333335,-54.0,29.0,-32.666666666666664
468.0,-100292.875,-6250.0,-781.0,2067.375,-54.0,29.0,-32.625
470.0,-100325.41666666667,-6250.0,-781.0,2067.4166666666665,-54.0,29.0,-32.583333333333336
472.0,-100357.95833333333,-6250.0,-781.0,2067.4583333333335,-54.0,29.0,-32.541666666666664
474.0,-100390.5,-6250.0,-781.0,2067.5,-54.0,29.0,-32.5
476.0,-100423.04166666667,-6250.0,-781.0,2067.5416666666665,-54.0,29.0,-32.458333333333336
478.0,-100455.58333333333,-6250.0,-781.0,2067.5833333333335,-54.0,29.0,-32.416666666666664
480.0,-100488.125,-6250.0,-781.0,2067.625,-54.0,29.0,-32.375
482.0,-100520.66666666667,-6250.0,-781.0,2067.6666666666665,-54.0,29.0,-32.333333333333336
484.0,-100553.20833333333,-6250.0,-781.0,2067.7083333333335,-54.0,29.0,-32.291666666666664
486.0,-100585.75,-6250.0,-781.0,2067.75,-54.0,29.0,-32.25
488.0,-100618.29166666667,-6250.0,-781.0,2067.7916666666665,-54.0,29.0,-32.208333333333336
490.0,-100650.83333333333,-6250.0,-781.0,2067.8333333333335,-54.0,29.0,-32.166666666666664
492.0,-100683.375,-6250.0,-781.0,2067.875,-54.0,29.0,-32.125
494.0,-100715.91666666667,-6250.0,-781.0,2067.9166666666665,-54.0,29.0,-32.083333333333336
496.0,-100748.45833333333,-6250.0,-781.0,2067.9583333333335,-54.0,29.0,-32.041666666666664
498.0,-100764.72916666666,-6250.0,-781.0,2067.979166666667,-54.0,29.0,-32.02083333333333
500.0,-100781.0,-6250.0,-781.0,2068.0,-54.0,29.0,-32.0
502.0,-100781.0,-6217.416666666667,-748.4583333333334,2067.2916666666665,-54.041666666666664,29.041666666666668,-32.0
504.0,-100781.0,-6184.833333333333,-715.9166666666666,2066.5833333333335,-54.083333333333336,29.083333333333332,-32.0
506.0,-100781.0,-6152.25,-683.375,2065.875,-54.125,29.125,-32.0
508.0,-100781.0,-6119.666666666667,-650.8333333333334,2065.1666666666665,-54.166666666666664,29.166666666666668,-32.0
510.0,-100781.0,-6087.083333333333,-618.2916666666667,2064.4583333333335,-54.208333333333336,29.208333333333332,-32.0
512.0,-100781.0,-6054.5,-585.75,2063.75,-54.25,29.25,-32.0
514.0,-100781.0,-6021.916666666667,-553.2083333333334,2063.0416666666665,-54.291666666666664,29.291666666666668,-32.0
516.0,-100781.0,-5989.333333333333,-520.6666666666667,2062.3333333333335,-54.333333333333336,29.333333333333332,-32.0
518.0,-100781.0,-5956.75,-488.125,2061.625,-54.375,29.375,-32.0
520.0,-100781.0,-5924.166666666667,-455.58333333333337,2060.9166666666665,-54.416666666666664,29.416666666666668,-32.0
522.0,-100781.0,-5891.583333333333,-423.0416666666667,2060.2083333333335,-54.458333333333336,29.458333333333332,-32.0
524.0,-100781.0,-5859.0,-390.5,2059.5,-54.5,29.5,-32.0
526.0,-100781.0,-5826.416666666667,-357.95833333333337,2058.7916666666665,-54.541666666666664,29.541666666666668,-32.0
528.0,-100781.0,-5793.833333333333,-325.4166666666667,2058.0833333333335,-54.583333333333336,29.583333333333332,-32.0
530.0,-100781.0,-5761.25,-292.87500000000006,2057.375,-54.625,29.625,-32.0
532.0,-100781.0,-5728.666666666667,-260.33333333333337,2056.6666666666665,-54.666666666666664,29.666666666666668,-32.0
534.0,-100781.0,-5696.083333333333,-227.79166666666674,2055.9583333333335,-54.708333333333336,29.708333333333332,-32.0
536.0,-100781.0,-5663.5,-195.25,2055.25,-54.75,29.75,-32.0
538.0,-100781.0,-5630.916666666667,-162.70833333333337,2054.5416666666665,-54.791666666666664,29.791666666666668,-32.0
540.0,-100781.0,-5598.333333333333,-130.16666666666674,2053.8333333333335,-54.833333333333336,29.833333333333332,-32.0
542.0,-100781.0,-5565.75,-97.625,2053.125,-54.875,29.875,-32.0
544.0,-100781.0,-5533.166666666667,-65.08333333333337,2052.4166666666665,-54.916666666666664,29.916666666666668,-32.0
546.0,-100781.0,-5500.583333333333,-32.54166666666674,2051.7083333333335,-54.958333333333336,29.958333333333332,-32.0
548.0,-100781.0,-5484.291666666666,-16.27083333333337,2051.354166666667,-54.97916666666667,29.979166666666664,-32.0
550.0,-100781.0,-5468.0,0.0,2051.0,-55.0,30.0,-32.0
552.0,-100813.54166666667,-5468.0,-65.08333333333333,2051.25,-55.0,30.083333333333332,-31.958333333333332
554.0,-100846.08333333333,-5468.0,-130.16666666666666,2051.5,-55.0,30.166666666666668,-31.916666666666668
556.0,-100878.625,-5468.0,-195.25,2051.75,-55.0,30.25,-31.875
558.0,-100911.16666666667,-5468.0,-260.3333333333333,2052.0,-55.0,30.333333333333332,-31.833333333333332
560.0,-100943.70833333333,-5468.0,-325.41666666666663,2052.25,-55.0,30.416666666666668,-31.791666666666668
562.0,-100976.25,-5468.0,-390.5,2052.5,-55.0,30.5,-31.75
564.0,-101008.79166666667,-5468.0,-455.5833333333333,2052.75,-55.0,30.583333333333332,-31.708333333333332
566.0,-101041.33333333333,-5468.0,-520.6666666666666,2053.0,-55.0,30.666666666666668,-31.666666666666668
568.0,-101073.875,-5468.0,-585.75,2053.25,-55.0,30.75,-31.625
570.0,-101106.41666666667,-5468.0,-650.8333333333333,2053.5,-55.0,30.833333333333332,-31.583333333333332
572.0,-101138.95833333333,-5468.0,-715.9166666666666,2053.75,-55.0,30.916666666666668,-31.541666666666668
574.0,-101171.5,-5468.0,-781.0,2054.0,-55.0,31.0,-31.5
576.0,-101204.04166666667,-5468.0,-846.0833333333333,2054.25,-55.0,31.083333333333332,-31.458333333333332
578.0,-101236.58333333333,-5468.0,-911.1666666666666,2054.5,-55.0,31.166666666666668,-31.416666666666668
580.0,-101269.125,-5468.0,-976.2499999999999,2054.75,-55.0,31.25,-31.375
582.0,-101301.66666666667,-5468.0,-1041.3333333333333,2055.0,-55.0,31.333333333333332,-31.333333333333332
584.0,-101334.20833333333,-5468.0,-1106.4166666666665,2055.25,-55.0,31.416666666666668,-31.291666666666668
586.0,-101366.75,-5468.0,-1171.5,2055.5,-55.0,31.5,-31.25
588.0,-101399.29166666667,-5468.0,-1236.5833333333333,2055.75,-55.0,31.583333333333332,-31.208333333333332
590.0,-101431.83333333333,-5468.0,-1301.6666666666665,2056.0,-55.0,31.666666666666668,-31.166666666666668
592.0,-101464.375,-5468.0,-1366.75,2056.25,-55.0,31.75,-31.125
594.0,-101496.91666666667,-5468.0,-1431.8333333333333,2056.5,-55.0,31.833333333333332,-31.083333333333332
596.0,-101529.45833333333,-5468.0,-1496.9166666666665,2056.75,-55.0,31.916666666666668,-31.041666666666668
598.0,-101545.72916666666,-5468.0,-1529.4583333333333,2056.875,-55.0,31.958333333333336,-31.020833333333336
600.0,-101562.0,-5468.0,-1562.0,2057.0,-55.0,32.0,-31.0
602.0,-101529.45833333333,-5500.583333333333,-1627.125,2056.8333333333335,-55.0,32.0,-31.0
604.0,-101496.91666666667,-5533.166666666667,-1692.25,2056.6666666666665,-55.0,32.0,-31.0
606.0,-101464.375,-5565.75,-1757.375,2056.5,-55.0,32.0,-31.0
608.0,-101431.83333333333,-5598.333333333333,-1822.5,2056.3333333333335,-55.0,32.0,-31.0
610.0,-101399.29166666667,-5630.916666666667,-1887.625,2056.1666666666665,-55.0,32.0,-31.0
612.0,-101366.75,-5663.5,-1952.75,2056.0,-55.0,32.0,-31.0
614.0,-101334.20833333333,-5696.083333333333,-2017.875,2055.8333333333335,-55.0,32.0,-31.0
616.0,-101301.66666666667,-5728.666666666667,-2083.0,2055.6666666666665,-55.0,32.0,-31.0
618.0,-101269.125,-5761.25,-2148.125,2055.5,-55.0,32.0,-31.0
620.0,-101236.58333333333,-5793.833333333333,-2213.25,2055.3333333333335,-55.0,32.0,-31.0
622.0,-101204.04166666667,-5826.416666666667,-2278.375,2055.1666666666665,-55.0,32.0,-31.0
624.0,-101171.5,-5859.0,-2343.5,2055.0,-55.0,32.0,-31.0
626.0,-101138.95833333333,-5891.583333333333,-2408.625,2054.8333333333335,-55.0,32.0,-31.0
628.0,-101106.41666666667,-5924.166666666667,-2473.75,2054.6666666666665,-55.0,32.0,-31.0
630.0,-101073.875,-5956.75,-2538.875,2054.5,-55.0,32.0,-31.0
632.0,-101041.33333333333,-5989.333333333333,-2604.0,2054.3333333333335,-55.0,32.0,-31.0
634.0,-101008.79166666667,-6021.916666666667,-2669.125,2054.1666666666665,-55.0,32.0,-31.0
636.0,-100976.25,-6054.5,-2734.25,2054.0,-55.0,32.0,-31.0
638.0,-100943.70833333333,-6087.083333333333,-2799.375,2053.8333333333335,-55.0,32.0,-31.0
640.0,-100911.16666666667,-6119.666666666667,-2864.5,2053.6666666666665,-55.0,32.0,-31.0
642.0,-100878.625,-6152.25,-2929.625,2053.5,-55.0,32.0,-31.0
644.0,-100846.08333333333,-6184.833333333333,-2994.75,2053.3333333333335,-55.0,32.0,-31.0
646.0,-100813.54166666667,-6217.416666666667,-3059.875,2053.1666666666665,-55.0,32.0,-31.0
648.0,-100797.27083333334,-6233.708333333334,-3092.4375,2053.083333333333,-55.0,32.0,-31.0
650.0,-100781.0,-6250.0,-3125.0,2053.0,-55.0,32.0,-31.0
652.0,-100781.0,-6217.416666666667,-3092.4166666666665,2052.9166666666665,-55.041666666666664,31.958333333333332,-30.958333333333332
654.0,-100781.0,-6184.833333333333,-3059.8333333333335,2052.8333333333335,-55.083333333333336,31.916666666666668,-30.916666666666668
656.0,-100781.0,-6152.25,-3027.25,2052.75,-55.125,31.875,-30.875
658.0,-100781.0,-6119.666666666667,-2994.6666666666665,2052.6666666666665,-55.166666666666664,31.833333333333332,-30.833333333333332
660.0,-100781.0,-6087.083333333333,-2962.0833333333335,2052.5833333333335,-55.208333333333336,31.791666666666668,-30.791666666666668
662.0,-100781.0,-6054.5,-2929.5,2052.5,-55.25,31.75,-30.75
664.0,-100781.0,-6021.916666666667,-2896.9166666666665,2052.4166666666665,-55.291666666666664,31.708333333333332,-30.708333333333332
666.0,-100781.0,-5989.333333333333,-2864.3333333333335,2052.3333333333335,-55.333333333333336,31.666666666666668,-30.666666666666668
668.0,-100781.0,-5956.75,-2831.75,2052.25,-55.375,31.625,-30.625
670.0,-100781.0,-5924.166666666667,-2799.1666666666665,2052.1666666666665,-55.416666666666664,31.583333333333332,-30.583333333333332
672.0,-100781.0,-5891.583333333333,-2766.5833333333335,2052.0833333333335,-55.458333333333336,31.541666666666668,-30.541666666666668
674.0,-100781.0,-5859.0,-2734.0,2052.0,-55.5,31.5,-30.5
676.0,-100781.0,-5826.416666666667,-2701.4166666666665,2051.9166666666665,-55.541666666666664,31.458333333333332,-30.458333333333332
678.0,-100781.0,-5793.833333333333,-2668.8333333333335,2051.8333333333335,-55.583333333333336,31.416666666666668,-30.416666666666668
680.0,-100781.0,-5761.25,-2636.25,2051.75,-55.625,31.375,-30.375
682.0,-100781.0,-5728.666666666667,-2603.6666666666665,2051.6666666666665,-55.666666666666664,31.333333333333332,-30.333333333333332
684.0,-100781.0,-5696.083333333333,-2571.083333333333,2051.5833333333335,-55.708333333333336,31.291666666666668,-30.291666666666668
686.0,-100781.0,-5663.5,-2538.5,2051.5,-55.75,31.25,-30.25
688.0,-100781.0,-5630.916666666667,-2505.9166666666665,2051.4166666666665,-55.791666666666664,31.208333333333332,-30.208333333333332
690.0,-100781.0,-5598.333333333333,-2473.333333333333,2051.3333333333335,-55.833333333333336,31.166666666666668,-30.166666666666668
692.0,-100781.0,-5565.75,-2440.75,2051.25,-55.875,31.125,-30.125
694.0,-100781.0,-5533.166666666667,-2408.1666666666665,2051.1666666666665,-55.916666666666664,31.083333333333332,-30.083333333333332
696.0,-100781.0,-5500.583333333333,-2375.583333333333,2051.0833333333335,-55.958333333333336,31.041666666666668,-30.041666666666668
698.0,-100781.0,-5484.291666666666,-2359.2916666666665,2051.041666666667,-55.97916666666667,31.020833333333336,-30.020833333333336
700.0,-100781.0,-5468.0,-2343.0,2051.0,-56.0,31.0,-30.0
702.0,-100781.0,-5500.583333333333,-2310.4583333333335,2051.0,-56.083333333333336,31.083333333333332,-30.0
704.0,-100781.0,-5533.166666666667,-2277.9166666666665,2051.0,-56.166666666666664,31.166666666666668,-30.0
706.0,-100781.0,-5565.75,-2245.375,2051.0,-56.25,31.25,-30.0
708.0,-100781.0,-5598.333333333333,-2212.8333333333335,2051.0,-56.333333333333336,31.333333333333332,-30.0
710.0,-100781.0,-5630.916666666667,-2180.2916666666665,2051.0,-56.416666666666664,31.416666666666668,-30.0
712.0,-100781.0,-5663.5,-2147.75,2051.0,-56.5,31.5,-30.0
714.0,-100781.0,-5696.083333333333,-2115.2083333333335,2051.0,-56.583333333333336,31.583333333333332,-30.0
716.0,-100781.0,-5728.666666666667,-2082.6666666666665,2051.0,-56.666666666666664,31.666666666666668,-30.0
718.0,-100781.0,-5761.25,-2050.125,2051.0,-56.75,31.75,-30.0
720.0,-100781.0,-5793.833333333333,-2017.5833333333335,2051.0,-56.833333333333336,31.833333333333332,-30.0
722.0,-100781.0,-5826.416666666667,-1985.0416666666667,2051.0,-56.916666666666664,31.916666666666668,-30.0
724.0,-100781.0,-5859.0,-1952.5,2051.0,-57.0,32.0,-30.0
726.0,-100781.0,-5891.583333333333,-1919.9583333333335,2051.0,-57.083333333333336,32.083333333333336,-30.0
728.0,-100781.0,-5924.166666666667,-1887.4166666666667,2051.0,-57.166666666666664,32.166666666666664,-30.0
730.0,-100781.0,-5956.75,-1854.875,2051.0,-57.25,32.25,-30.0
732.0,-100781.0,-5989.333333333333,-1822.3333333333335,2051.0,-57.333333333333336,32.333333333333336,-30.0
734.0,-100781.0,-6021.916666666667,-1789.7916666666667,2051.0,-57.416666666666664,32.416666666666664,-30.0
736.0,-100781.0,-6054.5,-1757.25,2051.0,-57.5,32.5,-30.0
738.0,-100781.0,-6087.083333333333,-1724.7083333333335,2051.0,-57.583333333333336,32.583333333333336,-30.0
740.0,-100781.0,-6119.666666666667,-1692.1666666666667,2051.0,-57.666666666666664,32.666666666666664,-30.0
742.0,-100781.0,-6152.25,-1659.625,2051.0,-57.75,32.75,-30.0
744.0,-100781.0,-6184.833333333333,-1627.0833333333335,2051.0,-57.833333333333336,32.833333333333336,-30.0
746.0,-100781.0,-6217.416666666667,-1594.5416666666667,2051.0,-57.916666666666664,32.916666666666664,-30.0
748.0,-100781.0,-6233.708333333334,-1578.2708333333335,2051.0,-57.95833333333333,32.95833333333333,-30.0
750.0,-100781.0,-6250.0,-1562.0,2051.0,-58.0,33.0,-30.0
752.0,-100781.0,-6250.0,-1529.4583333333333,2051.3333333333335,-58.083333333333336,32.875,-30.0
754.0,-100781.0,-6250.0,-1496.9166666666667,2051.6666666666665,-58.166666666666664,32.75,-30.0
756.0,-100781.0,-6250.0,-1464.375,2052.0,-58.25,32.625,-30.0
758.0,-100781.0,-6250.0,-1431.8333333333333,2052.3333333333335,-58.333333333333336,32.5,-30.0
760.0,-100781.0,-6250.0,-1399.2916666666667,2052.6666666666665,-58.416666666666664,32.375,-30.0
762.0,-100781.0,-6250.0,-1366.75,2053.0,-58.5,32.25,-30.0
764.0,-100781.0,-6250.0,-1334.2083333333333,2053.3333333333335,-58.583333333333336,32.125,-30.0
766.0,-100781.0,-6250.0,-1301.6666666666667,2053.6666666666665,-58.666666666666664,32.0,-30.0
768.0,-100781.0,-6250.0,-1269.125,2054.0,-58.75,31.875,-30.0
770.0,-100781.0,-6250.0,-1236.5833333333335,2054.3333333333335,-58.833333333333336,31.75,-30.0
772.0,-100781.0,-6250.0,-1204.0416666666667,2054.6666666666665,-58.916666666666664,31.625,-30.0
774.0,-100781.0,-6250.0,-1171.5,2055.0,-59.0,31.5,-30.0
776.0,-100781.0,-6250.0,-1138.9583333333335,2055.3333333333335,-59.083333333333336,31.375,-30.0
778.0,-100781.0,-6250.0,-1106.4166666666667,2055.6666666666665,-59.166666666666664,31.25,-30.0
780.0,-100781.0,-6250.0,-1073.875,2056.0,-59.25,31.125,-30.0
782.0,-100781.0,-6250.0,-1041.3333333333335,2056.3333333333335,-59.333333333333336,31.0,-30.0
784.0,-100781.0,-6250.0,-1008.7916666666667,2056.6666666666665,-59.416666666666664,30.875,-30.0
786.0,-100781.0,-6250.0,-976.25,2057.0,-59.5,30.75,-30.0
788.0,-100781.0,-6250.0,-943.7083333333334,2057.3333333333335,-59.583333333333336,30.625,-30.0
790.0,-100781.0,-6250.0,-911.1666666666667,2057.6666666666665,-59.666666666666664,30.5,-30.0
792.0,-100781.0,-6250.0,-878.625,2058.0,-59.75,30.375,-30.0
794.0,-100781.0,-6250.0,-846.0833333333334,2058.3333333333335,-59.833333333333336,30.25,-30.0
796.0,-100781.0,-6250.0,-813.5416666666667,2058.6666666666665,-59.916666666666664,30.125,-30.0
798.0,-100781.0,-6250.0,-797.2708333333334,2058.833333333333,-59.95833333333333,30.0625,-30.0
800.0,-100781.0,-6250.0,-781.0,2059.0,-60.0,30.0,-30.0
802.0,-100813.54166666667,-6184.875,-878.6666666666666,2059.0,-60.166666666666664,29.875,-30.0
804.0,-100846.08333333333,-6119.75,-976.3333333333334,2059.0,-60.333333333333336,29.75,-30.0
806.0,-100878.625,-6054.625,-1074.0,2059.0,-60.5,29.625,-30.0
808.0,-100911.16666666667,-5989.5,-1171.6666666666667,2059.0,-60.666666666666664,29.5,-30.0
810.0,-100943.70833333333,-5924.375,-1269.3333333333335,2059.0,-60.833333333333336,29.375,-30.0
812.0,-100976.25,-5859.25,-1367.0,2059.0,-61.0,29.25,-30.0
814.0,-101008.79166666667,-5794.125,-1464.6666666666667,2059.0,-61.166666666666664,29.125,-30.0
816.0,-101041.33333333333,-5729.0,-1562.3333333333335,2059.0,-61.333333333333336,29.0,-30.0
818.0,-101073.875,-5663.875,-1660.0,2059.0,-61.5,28.875,-30.0
820.0,-101106.41666666667,-5598.75,-1757.6666666666667,2059.0,-61.666666666666664,28.75,-30.0
822.0,-101138.95833333333,-5533.625,-1855.3333333333335,2059.0,-61.833333333333336,28.625,-30.0
824.0,-101171.5,-5468.5,-1953.0,2059.0,-62.0,28.5,-30.0
826.0,-101204.04166666667,-5403.375,-2050.666666666667,2059.0,-62.166666666666664,28.375,-30.0
828.0,-101236.58333333333,-5338.25,-2148.3333333333335,2059.0,-62.333333333333336,28.25,-30.0
830.0,-101269.125,-5273.125,-2246.0,2059.0,-62.5,28.125,-30.0
832.0,-101301.66666666667,-5208.0,-2343.666666666667,2059.0,-62.666666666666664,28.0,-30.0
834.0,-101334.20833333333,-5142.875,-2441.3333333333335,2059.0,-62.833333333333336,27.875,-30.0
836.0,-101366.75,-5077.75,-2539.0,2059.0,-63.0,27.75,-30.0
838.0,-101399.29166666667,-5012.625,-2636.666666666667,2059.0,-63.166666666666664,27.625,-30.0
840.0,-101431.83333333333,-4947.5,-2734.3333333333335,2059.0,-63.333333333333336,27.5,-30.0
842.0,-101464.375,-4882.375,-2832.0,2059.0,-63.5,27.375,-30.0
844.0,-101496.91666666667,-4817.25,-2929.666666666667,2059.0,-63.666666666666664,27.25,-30.0
846.0,-101529.45833333333,-4752.125,-3027.3333333333335,2059.0,-63.833333333333336,27.125,-30.0
848.0,-101545.72916666666,-4719.5625,-3076.166666666667,2059.0,-63.91666666666667,27.0625,-30.0
850.0,-101562.0,-4687.0,-3125.0,2059.0,-64.0,27.0,-30.0
852.0,-101594.54166666667,-4687.0,-3092.4166666666665,2059.1666666666665,-64.08333333333333,26.916666666666668,-30.0
854.0,-101627.08333333333,-4687.0,-3059.8333333333335,2059.3333333333335,-64.16666666666667,26.833333333333332,-30.0
856.0,-101659.625,-4687.0,-3027.25,2059.5,-64.25,26.75,-30.0
858.0,-101692.16666666667,-4687.0,-2994.6666666666665,2059.6666666666665,-64.33333333333333,26.666666666666668,-30.0
860.0,-101724.70833333333,-4687.0,-2962.0833333333335,2059.8333333333335,-64.41666666666667,26.583333333333332,-30.0
862.0,-101757.25,-4687.0,-2929.5,2060.0,-64.5,26.5,-30.0
864.0,-101789.79166666667,-4687.0,-2896.9166666666665,2060.1666666666665,-64.58333333333333,26.416666666666668,-30.0
866.0,-101822.33333333333,-4687.0,-2864.3333333333335,2060.3333333333335,-64.66666666666667,26.333333333333332,-30.0
868.0,-101854.875,-4687.0,-2831.75,2060.5,-64.75,26.25,-30.0
870.0,-101887.41666666667,-4687.0,-2799.1666666666665,2060.6666666666665,-64.83333333333333,26.166666666666668,-30.0
872.0,-101919.95833333333,-4687.0,-2766.5833333333335,2060.8333333333335,-64.91666666666667,26.083333333333332,-30.0
874.0,-101952.5,-4687.0,-2734.0,2061.0,-65.0,26.0,-30.0
876.0,-101985.04166666667,-4687.0,-2701.4166666666665,2061.1666666666665,-65.08333333333333,25.916666666666668,-30.0
878.0,-102017.58333333333,-4687.0,-2668.8333333333335,2061.3333333333335,-65.16666666666667,25.833333333333332,-30.0
880.0,-102050.125,-4687.0,-2636.25,2061.5,-65.25,25.75,-30.0
882.0,-102082.66666666667,-4687.0,-2603.6666666666665,2061.6666666666665,-65.33333333333333,25.666666666666668,-30.0
884.0,-102115.20833333333,-4687.0,-2571.083333333333,2061.8333333333335,-65.41666666666667,25.583333333333332,-30.0
886.0,-102147.75,-4687.0,-2538.5,2062.0,-65.5,25.5,-30.0
888.0,-102180.29166666667,-4687.0,-2505.9166666666665,2062.1666666666665,-65.58333333333333,25.416666666666668,-30.0
890.0,-102212.83333333333,-4687.0,-2473.333333333333,2062.3333333333335,-65.66666666666667,25.333333333333332,-30.0
892.0,-102245.375,-4687.0,-2440.75,2062.5,-65.75,25.25,-30.0
894.0,-102277.91666666667,-4687.0,-2408.1666666666665,2062.6666666666665,-65.83333333333333,25.166666666666668,-30.0
896.0,-102310.45833333333,-4687.0,-2375.583333333333,2062.8333333333335,-65.91666666666667,25.083333333333332,-30.0
898.0,-102326.72916666666,-4687.0,-2359.2916666666665,2062.916666666667,-65.95833333333334,25.041666666666664,-30.0
900.0,-102343.0,-4687.0,-2343.0,2063.0,-66.0,25.0,-30.0
902.0,-102310.45833333333,-4687.0,-2343.0,2062.625,-66.04166666666667,24.833333333333332,-30.0
904.0,-102277.91666666667,-4687.0,-2343.0,2062.25,-66.08333333333333,24.666666666666668,-30.0
906.0,-102245.375,-4687.0,-2343.0,2061.875,-66.125,24.5,-30.0
908.0,-102212.83333333333,-4687.0,-2343.0,2061.5,-66.16666666666667,24.333333333333332,-30.0
910.0,-102180.29166666667,-4687.0,-2343.0,2061.125,-66.20833333333333,24.166666666666668,-30.0
912.0,-102147.75,-4687.0,-2343.0,2060.75,-66.25,24.0,-30.0
914.0,-102115.20833333333,-4687.0,-2343.0,2060.375,-66.29166666666667,23.833333333333332,-30.0
916.0,-102082.66666666667,-4687.0,-2343.0,2060.0,-66.33333333333333,23.666666666666668,-30.0
918.0,-102050.125,-4687.0,-2343.0,2059.625,-66.375,23.5,-30.0
920.0,-102017.58333333333,-4687.0,-2343.0,2059.25,-66.41666666666667,23.333333333333332,-30.0
922.0,-101985.04166666667,-4687.0,-2343.0,2058.875,-66.45833333333333,23.166666666666668,-30.0
924.0,-101952.5,-4687.0,-2343.0,2058.5,-66.5,23.0,-30.0
926.0,-101919.95833333333,-4687.0,-2343.0,2058.125,-66.54166666666667,22.833333333333332,-30.0
928.0,-101887.41666666667,-4687.0,-2343.0,2057.75,-66.58333333333333,22.666666666666668,-30.0
930.0,-101854.875,-4687.0,-2343.0,2057.375,-66.625,22.5,-30.0
932.0,-101822.33333333333,-4687.0,-2343.0,2057.0,-66.66666666666667,22.333333333333332,-30.0
934.0,-101789.79166666667,-4687.0,-2343.0,2056.625,-66.70833333333333,22.166666666666668,-30.0
936.0,-101757.25,-4687.0,-2343.0,2056.25,-66.75,22.0,-30.0
938.0,-101724.70833333333,-4687.0,-2343.0,2055.875,-66.79166666666667,21.833333333333332,-30.0
940.0,-101692.16666666667,-4687.0,-2343.0,2055.5,-66.83333333333333,21.666666666666668,-30.0
942.0,-101659.625,-4687.0,-2343.0,2055.125,-66.875,21.5,-30.0
944.0,-101627.08333333333,-4687.0,-2343.0,2054.75,-66.91666666666667,21.333333333333332,-30.0
946.0,-101594.54166666667,-4687.0,-2343.0,2054.375,-66.95833333333333,21.166666666666668,-30.0
948.0,-101578.27083333334,-4687.0,-2343.0,2054.1875,-66.97916666666666,21.083333333333336,-30.0
950.0,-101562.0,-4687.0,-2343.0,2054.0,-67.0,21.0,-30.0
952.0,-101529.45833333333,-4687.0,-2343.0,2054.5,-67.125,20.791666666666668,-29.958333333333332
954.0,-101496.91666666667,-4687.0,-2343.0,2055.0,-67.25,20.583333333333332,-29.916666666666668
956.0,-101464.375,-4687.0,-2343.0,2055.5,-67.375,20.375,-29.875
958.0,-101431.83333333333,-4687.0,-2343.0,2056.0,-67.5,20.166666666666668,-29.833333333333332
960.0,-101399.29166666667,-4687.0,-2343.0,2056.5,-67.625,19.958333333333332,-29.791666666666668
962.0,-101366.75,-4687.0,-2343.0,2057.0,-67.75,19.75,-29.75
964.0,-101334.20833333333,-4687.0,-2343.0,2057.5,-67.875,19.541666666666668,-29.708333333333332
966.0,-101301.66666666667,-4687.0,-2343.0,2058.0,-68.0,19.333333333333332,-29.666666666666668
968.0,-101269.125,-4687.0,-2343.0,2058.5,-68.125,19.125,-29.625
970.0,-101236.58333333333,-4687.0,-2343.0,2059.0,-68.25,18.916666666666668,-29.583333333333332
972.0,-101204.04166666667,-4687.0,-2343.0,2059.5,-68.375,18.708333333333332,-29.541666666666668
974.0,-101171.5,-4687.0,-2343.0,2060.0,-68.5,18.5,-29.5
976.0,-101138.95833333333,-4687.0,-2343.0,2060.5,-68.625,18.291666666666668,-29.458333333333332
978.0,-101106.41666666667,-4687.0,-2343.0,2061.0,-68.75,18.083333333333332,-29.416666666666668
980.0,-101073.875,-4687.0,-2343.0,2061.5,-68.875,17.875,-29.375
982.0,-101041.33333333333,-4687.0,-2343.0,2062.0,-69.0,17.666666666666668,-29.333333333333332
984.0,-101008.79166666667,-4687.0,-2343.0,2062.5,-69.125,17.458333333333332,-29.291666666666668
986.0,-100976.25,-4687.0,-2343.0,2063.0,-69.25,17.25,-29.25
988.0,-100943.70833333333,-4687.0,-2343.0,2063.5,-69.375,17.041666666666668,-29.208333333333332
990.0,-100911.16666666667,-4687.0,-2343.0,2064.0,-69.5,16.833333333333332,-29.166666666666668
992.0,-100878.625,-4687.0,-2343.0,2064.5,-69.625,16.625,-29.125
994.0,-100846.08333333333,-4687.0,-2343.0,2065.0,-69.75,16.416666666666664,-29.083333333333332
996.0,-100813.54166666667,-4687.0,-2343.0,2065.5,-69.875,16.208333333333332,-29.041666666666668
998.0,-100797.27083333334,-4687.0,-2343.0,2065.75,-69.9375,16.104166666666664,-29.020833333333336
1000.0,-100781.0,-4687.0,-2343.0,2066.0,-70.0,16.0,-29.0
1002.0,-100813.54166666667,-4654.458333333333,-2310.4583333333335,2065.4583333333335,-70.08333333333333,15.916666666666666,-29.041666666666668
1004.0,-100846.08333333333,-4621.916666666667,-2277.9166666666665,2064.9166666666665,-70.16666666666667,15.833333333333334,-29.083333333333332
1006.0,-100878.625,-4589.375,-2245.375,2064.375,-70.25,15.75,-29.125
1008.0,-100911.16666666667,-4556.833333333333,-2212.8333333333335,2063.8333333333335,-70.33333333333333,15.666666666666666,-29.166666666666668
1010.0,-100943.70833333333,-4524.291666666667,-2180.2916666666665,2063.2916666666665,-70.41666666666667,15.583333333333334,-29.208333333333332
1012.0,-100976.25,-4491.75,-2147.75,2062.75,-70.5,15.5,-29.25
1014.0,-101008.79166666667,-4459.208333333333,-2115.2083333333335,2062.2083333333335,-70.58333333333333,15.416666666666666,-29.291666666666668
1016.0,-101041.33333333333,-4426.666666666667,-2082.6666666666665,2061.6666666666665,-70.66666666666667,15.333333333333334,-29.333333333333332
1018.0,-101073.875,-4394.125,-2050.125,2061.125,-70.75,15.25,-29.375
1020.0,-101106.41666666667,-4361.583333333333,-2017.5833333333335,2060.5833333333335,-70.83333333333333,15.166666666666666,-29.416666666666668
1022.0,-101138.95833333333,-4329.041666666667,-1985.0416666666667,2060.0416666666665,-70.91666666666667,15.083333333333334,-29.458333333333332
1024.0,-101171.5,-4296.5,-1952.5,2059.5,-71.0,15.0,-29.5
1026.0,-101204.04166666667,-4263.958333333333,-1919.9583333333335,2058.9583333333335,-71.08333333333333,14.916666666666666,-29.541666666666668
1028.0,-101236.58333333333,-4231.416666666667,-1887.4166666666667,2058.4166666666665,-71.16666666666667,14.833333333333334,-29.583333333333332
1030.0,-101269.125,-4198.875,-1854.875,2057.875,-71.25,14.75,-29.625
1032.0,-101301.66666666667,-4166.333333333333,-1822.3333333333335,2057.3333333333335,-71.33333333333333,14.666666666666666,-29.666666666666668
1034.0,-101334.20833333333,-4133.791666666667,-1789.7916666666667,2056.7916666666665,-71.41666666666667,14.583333333333334,-29.708333333333332
1036.0,-101366.75,-4101.25,-1757.25,2056.25,-71.5,14.5,-29.75
1038.0,-101399.29166666667,-4068.7083333333335,-1724.7083333333335,2055.7083333333335,-71.58333333333333,14.416666666666666,-29.791666666666668
1040.0,-101431.83333333333,-4036.166666666667,-1692.1666666666667,2055.1666666666665,-71.66666666666667,14.333333333333334,-29.833333333333332
1042.0,-101464.375,-4003.625,-1659.625,2054.625,-71.75,14.25,-29.875
1044.0,-101496.91666666667,-3971.0833333333335,-1627.0833333333335,2054.0833333333335,-71.83333333333333,14.166666666666666,-29.916666666666668
1046.0,-101529.45833333333,-3938.541666666667,-1594.5416666666667,2053.5416666666665,-71.91666666666667,14.083333333333334,-29.958333333333332
1048.0,-101545.72916666666,-3922.2708333333335,-1578.2708333333335,2053.270833333333,-71.95833333333334,14.041666666666668,-29.979166666666664
1050.0,-101562.0,-3906.0,-1562.0,2053.0,-72.0,14.0,-30.0
1052.0,-101496.91666666667,-3938.5416666666665,-1529.4583333333333,2053.2083333333335,-72.0,13.791666666666666,-29.958333333333332
1054.0,-101431.83333333333,-3971.0833333333335,-1496.9166666666667,2053.4166666666665,-72.0,13.583333333333334,-29.916666666666668
1056.0,-101366.75,-4003.625,-1464.375,2053.625,-72.0,13.375,-29.875
1058.0,-101301.66666666667,-4036.1666666666665,-1431.8333333333333,2053.8333333333335,-72.0,13.166666666666666,-29.833333333333332
1060.0,-101236.58333333333,-4068.7083333333335,-1399.2916666666667,2054.0416666666665,-72.0,12.958333333333334,-29.791666666666668
1062.0,-101171.5,-4101.25,-1366.75,2054.25,-72.0,12.75,-29.75
1064.0,-101106.41666666667,-4133.791666666667,-1334.2083333333333,2054.4583333333335,-72.0,12.541666666666666,-29.708333333333332
1066.0,-101041.33333333333,-4166.333333333333,-1301.6666666666667,2054.6666666666665,-72.0,12.333333333333334,-29.666666666666668
1068.0,-100976.25,-4198.875,-1269.125,2054.875,-72.0,12.125,-29.625
1070.0,-100911.16666666667,-4231.416666666667,-1236.5833333333335,2055.0833333333335,-72.0,11.916666666666666,-29.583333333333332
1072.0,-100846.08333333333,-4263.958333333333,-1204.0416666666667,2055.2916666666665,-72.0,11.708333333333332,-29.541666666666668
1074.0,-100781.0,-4296.5,-1171.5,2055.5,-72.0,11.5,-29.5
1076.0,-100715.91666666667,-4329.041666666667,-1138.9583333333335,2055.7083333333335,-72.0,11.291666666666666,-29.458333333333332
1078.0,-100650.83333333333,-4361.583333333333,-1106.4166666666667,2055.9166666666665,-72.0,11.083333333333332,-29.416666666666668
1080.0,-100585.75,-4394.125,-1073.875,2056.125,-72.0,10.875,-29.375
1082.0,-100520.66666666667,-4426.666666666667,-1041.3333333333335,2056.3333333333335,-72.0,10.666666666666666,-29.333333333333332
1084.0,-100455.58333333333,-4459.208333333333,-1008.7916666666667,2056.5416666666665,-72.0,10.458333333333332,-29.291666666666668
1086.0,-100390.5,-4491.75,-976.25,2056.75,-72.0,10.25,-29.25
1088.0,-100325.41666666667,-4524.291666666667,-943.7083333333334,2056.9583333333335,-72.0,10.041666666666666,-29.208333333333332
1090.0,-100260.33333333333,-4556.833333333333,-911.1666666666667,2057.1666666666665,-72.0,9.833333333333332,-29.166666666666668
1092.0,-100195.25,-4589.375,-878.625,2057.375,-72.0,9.625,-29.125
1094.0,-100130.16666666667,-4621.916666666667,-846.0833333333334,2057.5833333333335,-72.0,9.416666666666666,-29.083333333333332
1096.0,-100065.08333333333,-4654.458333333333,-813.5416666666667,2057.7916666666665,-72.0,9.208333333333332,-29.041666666666668
1098.0,-100032.54166666666,-4670.729166666666,-797.2708333333334,2057.895833333333,-72.0,9.104166666666666,-29.020833333333336
1100.0,-100000.0,-4687.0,-781.0,2058.0,-72.0,9.0,-29.0
1102.0,-100000.0,-4719.541666666667,-748.4583333333334,2058.25,-72.0,8.958333333333334,-29.0
1104.0,-100000.0,-4752.083333333333,-715.9166666666666,2058.5,-72.0,8.916666666666666,-29.0
1106.0,-100000.0,-4784.625,-683.375,2058.75,-72.0,8.875,-29.0
1108.0,-100000.0,-4817.166666666667,-650.8333333333334,2059.0,-72.0,8.833333333333334,-29.0
1110.0,-100000.0,-4849.708333333333,-618.2916666666667,2059.25,-72.0,8.791666666666666,-29.0
1112.0,-100000.0,-4882.25,-585.75,2059.5,-72.0,8.75,-29.0
1114.0,-100000.0,-4914.791666666667,-553.2083333333334,2059.75,-72.0,8.708333333333334,-29.0
1116.0,-100000.0,-4947.333333333333,-520.6666666666667,2060.0,-72.0,8.666666666666666,-29.0
1118.0,-100000.0,-4979.875,-488.125,2060.25,-72.0,8.625,-29.0
1120.0,-100000.0,-5012.416666666667,-455.58333333333337,2060.5,-72.0,8.583333333333334,-29.0
1122.0,-100000.0,-5044.958333333333,-423.0416666666667,2060.75,-72.0,8.541666666666666,-29.0
1124.0,-100000.0,-5077.5,-390.5,2061.0,-72.0,8.5,-29.0
1126.0,-100000.0,-5110.041666666667,-357.95833333333337,2061.25,-72.0,8.458333333333334,-29.0
1128.0,-100000.0,-5142.583333333333,-325.4166666666667,2061.5,-72.0,8.416666666666666,-29.0
1130.0,-100000.0,-5175.125,-292.87500000000006,2061.75,-72.0,8.375,-29.0
1132.0,-100000.0,-5207.666666666667,-260.33333333333337,2062.0,-72.0,8.333333333333334,-29.0
1134.0,-100000.0,-5240.208333333333,-227.79166666666674,2062.25,-72.0,8.291666666666666,-29.0
1136.0,-100000.0,-5272.75,-195.25,2062.5,-72.0,8.25,-29.0
1138.0,-100000.0,-5305.291666666667,-162.70833333333337,2062.75,-72.0,8.208333333333334,-29.0
1140.0,-100000.0,-5337.833333333333,-130.16666666666674,2063.0,-72.0,8.166666666666666,-29.0
1142.0,-100000.0,-5370.375,-97.625,2063.25,-72.0,8.125,-29.0
1144.0,-100000.0,-5402.916666666667,-65.08333333333337,2063.5,-72.0,8.083333333333334,-29.0
1146.0,-100000.0,-5435.458333333333,-32.54166666666674,2063.75,-72.0,8.041666666666666,-29.0
1148.0,-100000.0,-5451.729166666666,-16.27083333333337,2063.875,-72.0,8.020833333333332,-29.0
1150.0,-100000.0,-5468.0,0.0,2064.0,-72.0,8.0,-29.0
1152.0,-99967.41666666667,-5435.458333333333,65.08333333333333,2064.0,-71.95833333333333,7.833333333333333,-28.916666666666668
1154.0,-99934.83333333333,-5402.916666666667,130.16666666666666,2064.0,-71.91666666666667,7.666666666666667,-28.833333333333332
1156.0,-99902.25,-5370.375,195.25,2064.0,-71.875,7.5,-28.75
1158.0,-99869.66666666667,-5337.833333333333,260.3333333333333,2064.0,-71.83333333333333,7.333333333333333,-28.666666666666668
1160.0,-99837.08333333333,-5305.291666666667,325.41666666666663,2064.0,-71.79166666666667,7.166666666666667,-28.583333333333332
1162.0,-99804.5,-5272.75,390.5,2064.0,-71.75,7.0,-28.5
1164.0,-99771.91666666667,-5240.208333333333,455.5833333333333,2064.0,-71.70833333333333,6.833333333333334,-28.416666666666668
1166.0,-99739.33333333333,-5207.666666666667,520.6666666666666,2064.0,-71.66666666666667,6.666666666666667,-28.333333333333332
1168.0,-99706.75,-5175.125,585.75,2064.0,-71.625,6.5,-28.25
1170.0,-99674.16666666667,-5142.583333333333,650.8333333333333,2064.0,-71.58333333333333,6.333333333333334,-28.166666666666668
1172.0,-99641.58333333333,-5110.041666666667,715.9166666666666,2064.0,-71.54166666666667,6.166666666666667,-28.083333333333332
1174.0,-99609.0,-5077.5,781.0,2064.0,-71.5,6.0,-28.0
1176.0,-99576.41666666667,-5044.958333333333,846.0833333333333,2064.0,-71.45833333333333,5.833333333333334,-27.916666666666668
1178.0,-99543.83333333333,-5012.416666666667,911.1666666666666,2064.0,-71.41666666666667,5.666666666666667,-27.833333333333332
1180.0,-99511.25,-4979.875,976.2499999999999,2064.0,-71.375,5.5,-27.75
1182.0,-99478.66666666667,-4947.333333333333,1041.3333333333333,2064.0,-71.33333333333333,5.333333333333334,-27.666666666666668
1184.0,-99446.08333333333,-4914.791666666667,1106.4166666666665,2064.0,-71.29166666666667,5.166666666666667,-27.583333333333332
1186.0,-99413.5,-4882.25,1171.5,2064.0,-71.25,5.0,-27.5
1188.0,-99380.91666666667,-4849.708333333333,1236.5833333333333,2064.0,-71.20833333333333,4.833333333333334,-27.416666666666668
1190.0,-99348.33333333333,-4817.166666666667,1301.6666666666665,2064.0,-71.16666666666667,4.666666666666667,-27.333333333333332
1192.0,-99315.75,-4784.625,1366.75,2064.0,-71.125,4.5,-27.25
1194.0,-99283.16666666667,-4752.083333333333,1431.8333333333333,2064.0,-71.08333333333333,4.333333333333334,-27.166666666666668
1196.0,-99250.58333333333,-4719.541666666667,1496.9166666666665,2064.0,-71.04166666666667,4.166666666666667,-27.083333333333332
1198.0,-99234.29166666666,-4703.270833333334,1529.4583333333333,2064.0,-71.02083333333334,4.083333333333334,-27.041666666666664
1200.0,-99218.0,-4687.0,1562.0,2064.0,-71.0,4.0,-27.0
1202.0,-99218.0,-4687.0,1529.4583333333333,2063.5416666666665,-70.83333333333333,3.875,-26.958333333333332
1204.0,-99218.0,-4687.0,1496.9166666666667,2063.0833333333335,-70.66666666666667,3.75,-26.916666666666668
1206.0,-99218.0,-4687.0,1464.375,2062.625,-70.5,3.625,-26.875
1208.0,-99218.0,-4687.0,1431.8333333333333,2062.1666666666665,-70.33333333333333,3.5,-26.833333333333332
1210.0,-99218.0,-4687.0,1399.2916666666667,2061.7083333333335,-70.16666666666667,3.375,-26.791666666666668
1212.0,-99218.0,-4687.0,1366.75,2061.25,-70.0,3.25,-26.75
1214.0,-99218.0,-4687.0,1334.2083333333333,2060.7916666666665,-69.83333333333333,3.125,-26.708333333333332
1216.0,-99218.0,-4687.0,1301.6666666666667,2060.3333333333335,-69.66666666666667,3.0,-26.666666666666668
1218.0,-99218.0,-4687.0,1269.125,2059.875,-69.5,2.875,-26.625
1220.0,-99218.0,-4687.0,1236.5833333333335,2059.4166666666665,-69.33333333333333,2.75,-26.583333333333332
1222.0,-99218.0,-4687.0,1204.0416666666667,2058.9583333333335,-69.16666666666667,2.625,-26.541666666666668
1224.0,-99218.0,-4687.0,1171.5,2058.5,-69.0,2.5,-26.5
1226.0,-99218.0,-4687.0,1138.9583333333335,2058.0416666666665,-68.83333333333333,2.375,-26.458333333333332
1228.0,-99218.0,-4687.0,1106.4166666666667,2057.5833333333335,-68.66666666666667,2.25,-26.416666666666668
1230.0,-99218.0,-4687.0,1073.875,2057.125,-68.5,2.125,-26.375
1232.0,-99218.0,-4687.0,1041.3333333333335,2056.6666666666665,-68.33333333333333,2.0,-26.333333333333332
1234.0,-99218.0,-4687.0,1008.7916666666667,2056.2083333333335,-68.16666666666667,1.875,-26.291666666666668
1236.0,-99218.0,-4687.0,976.25,2055.75,-68.0,1.75,-26.25
1238.0,-99218.0,-4687.0,943.7083333333334,2055.2916666666665,-67.83333333333333,1.625,-26.208333333333332
1240.0,-99218.0,-4687.0,911.1666666666667,2054.8333333333335,-67.66666666666667,1.5,-26.166666666666668
1242.0,-99218.0,-4687.0,878.625,2054.375,-67.5,1.375,-26.125
1244.0,-99218.0,-4687.0,846.0833333333334,2053.9166666666665,-67.33333333333333,1.25,-26.083333333333332
1246.0,-99218.0,-4687.0,813.5416666666667,2053.4583333333335,-67.16666666666667,1.125,-26.041666666666668
1248.0,-99218.0,-4687.0,797.2708333333334,2053.229166666667,-67.08333333333334,1.0625,-26.020833333333336
1250.0,-99218.0,-4687.0,781.0,2053.0,-67.0,1.0,-26.0
1252.0,-99152.91666666667,-4687.0,846.0833333333334,2052.9583333333335,-66.83333333333333,1.0833333333333333,-26.0
1254.0,-99087.83333333333,-4687.0,911.1666666666666,2052.9166666666665,-66.66666666666667,1.1666666666666667,-26.0
1256.0,-99022.75,-4687.0,976.25,2052.875,-66.5,1.25,-26.0
1258.0,-98957.66666666667,-4687.0,1041.3333333333333,2052.8333333333335,-66.33333333333333,1.3333333333333333,-26.0
1260.0,-98892.58333333333,-4687.0,1106.4166666666665,2052.7916666666665,-66.16666666666667,1.4166666666666665,-26.0
1262.0,-98827.5,-4687.0,1171.5,2052.75,-66.0,1.5,-26.0
1264.0,-98762.41666666667,-4687.0,1236.5833333333333,2052.7083333333335,-65.83333333333333,1.5833333333333333,-26.0
1266.0,-98697.33333333333,-4687.0,1301.6666666666665,2052.6666666666665,-65.66666666666667,1.6666666666666665,-26.0
1268.0,-98632.25,-4687.0,1366.75,2052.625,-65.5,1.75,-26.0
1270.0,-98567.16666666667,-4687.0,1431.8333333333333,2052.5833333333335,-65.33333333333333,1.8333333333333333,-26.0
1272.0,-98502.08333333333,-4687.0,1496.9166666666665,2052.5416666666665,-65.16666666666667,1.9166666666666665,-26.0
1274.0,-98437.0,-4687.0,1562.0,2052.5,-65.0,2.0,-26.0
1276.0,-98371.91666666667,-4687.0,1627.0833333333333,2052.4583333333335,-64.83333333333333,2.083333333333333,-26.0
1278.0,-98306.83333333333,-4687.0,1692.1666666666665,2052.4166666666665,-64.66666666666667,2.1666666666666665,-26.0
1280.0,-98241.75,-4687.0,1757.25,2052.375,-64.5,2.25,-26.0
1282.0,-98176.66666666667,-4687.0,1822.3333333333333,2052.3333333333335,-64.33333333333333,2.333333333333333,-26.0
1284.0,-98111.58333333333,-4687.0,1887.4166666666665,2052.2916666666665,-64.16666666666667,2.4166666666666665,-26.0
1286.0,-98046.5,-4687.0,1952.5,2052.25,-64.0,2.5,-26.0
1288.0,-97981.41666666667,-4687.0,2017.5833333333333,2052.2083333333335,-63.833333333333336,2.583333333333333,-26.0
1290.0,-97916.33333333333,-4687.0,2082.6666666666665,2052.1666666666665,-63.666666666666664,2.6666666666666665,-26.0
1292.0,-97851.25,-4687.0,2147.75,2052.125,-63.5,2.75,-26.0
1294.0,-97786.16666666667,-4687.0,2212.833333333333,2052.0833333333335,-63.333333333333336,2.833333333333333,-26.0
1296.0,-97721.08333333333,-4687.0,2277.9166666666665,2052.0416666666665,-63.166666666666664,2.9166666666666665,-26.0
1298.0,-97688.54166666666,-4687.0,2310.458333333333,2052.020833333333,-63.08333333333333,2.958333333333333,-26.0
1300.0,-97656.0,-4687.0,2343.0,2052.0,-63.0,3.0,-26.0
1302.0,-97590.875,-4719.541666666667,2408.125,2052.2083333333335,-62.75,3.0,-25.916666666666668
1304.0,-97525.75,-4752.083333333333,2473.25,2052.4166666666665,-62.5,3.0,-25.833333333333332
1306.0,-97460.625,-4784.625,2538.375,2052.625,-62.25,3.0,-25.75
1308.0,-97395.5,-4817.166666666667,2603.5,2052.8333333333335,-62.0,3.0,-25.666666666666668
1310.0,-97330.375,-4849.708333333333,2668.625,2053.0416666666665,-61.75,3.0,-25.583333333333332
1312.0,-97265.25,-4882.25,2733.75,2053.25,-61.5,3.0,-25.5
1314.0,-97200.125,-4914.791666666667,2798.875,2053.4583333333335,-61.25,3.0,-25.416666666666668
1316.0,-97135.0,-4947.333333333333,2864.0,2053.6666666666665,-61.0,3.0,-25.333333333333332
1318.0,-97069.875,-4979.875,2929.125,2053.875,-60.75,3.0,-25.25
1320.0,-97004.75,-5012.416666666667,2994.25,2054.0833333333335,-60.5,3.0,-25.166666666666668
1322.0,-96939.625,-5044.958333333333,3059.375,2054.2916666666665,-60.25,3.0,-25.083333333333332
1324.0,-96874.5,-5077.5,3124.5,2054.5,-60.0,3.0,-25.0
1326.0,-96809.375,-5110.041666666667,3189.625,2054.7083333333335,-59.75,3.0,-24.916666666666668
1328.0,-96744.25,-5142.583333333333,3254.75,2054.9166666666665,-59.5,3.0,-24.833333333333332
1330.0,-96679.125,-5175.125,3319.875,2055.125,-59.25,3.0,-24.75
1332.0,-96614.0,-5207.666666666667,3385.0,2055.3333333333335,-59.0,3.0,-24.666666666666668
1334.0,-96548.875,-5240.208333333333,3450.125,2055.5416666666665,-58.75,3.0,-24.583333333333332
1336.0,-96483.75,-5272.75,3515.25,2055.75,-58.5,3.0,-24.5
1338.0,-96418.625,-5305.291666666667,3580.375,2055.9583333333335,-58.25,3.0,-24.416666666666668
1340.0,-96353.5,-5337.833333333333,3645.5,2056.1666666666665,-58.0,3.0,-24.333333333333332
1342.0,-96288.375,-5370.375,3710.625,2056.375,-57.75,3.0,-24.25
1344.0,-96223.25,-5402.916666666667,3775.75,2056.5833333333335,-57.5,3.0,-24.166666666666668
1346.0,-96158.125,-5435.458333333333,3840.875,2056.7916666666665,-57.25,3.0,-24.083333333333332
1348.0,-96125.5625,-5451.729166666666,3873.4375,2056.895833333333,-57.125,3.0,-24.041666666666664
1350.0,-96093.0,-5468.0,3906.0,2057.0,-57.0,3.0,-24.0
1352.0,-96060.45833333333,-5468.0,3873.4583333333335,2056.9583333333335,-56.666666666666664,3.1666666666666665,-24.0
1354.0,-96027.91666666667,-5468.0,3840.9166666666665,2056.9166666666665,-56.333333333333336,3.3333333333333335,-24.0
1356.0,-95995.375,-5468.0,3808.375,2056.875,-56.0,3.5,-24.0
1358.0,-95962.83333333333,-5468.0,3775.8333333333335,2056.8333333333335,-55.666666666666664,3.6666666666666665,-24.0
1360.0,-95930.29166666667,-5468.0,3743.2916666666665,2056.7916666666665,-55.333333333333336,3.833333333333333,-24.0
1362.0,-95897.75,-5468.0,3710.75,2056.75,-55.0,4.0,-24.0
1364.0,-95865.20833333333,-5468.0,3678.2083333333335,2056.7083333333335,-54.666666666666664,4.166666666666666,-24.0
1366.0,-95832.66666666667,-5468.0,3645.6666666666665,2056.6666666666665,-54.333333333333336,4.333333333333333,-24.0
1368.0,-95800.125,-5468.0,3613.125,2056.625,-54.0,4.5,-24.0
1370.0,-95767.58333333333,-5468.0,3580.5833333333335,2056.5833333333335,-53.666666666666664,4.666666666666666,-24.0
1372.0,-95735.04166666667,-5468.0,3548.0416666666665,2056.5416666666665,-53.333333333333336,4.833333333333333,-24.0
1374.0,-95702.5,-5468.0,3515.5,2056.5,-53.0,5.0,-24.0
1376.0,-95669.95833333333,-5468.0,3482.9583333333335,2056.4583333333335,-52.666666666666664,5.166666666666666,-24.0
1378.0,-95637.41666666667,-5468.0,3450.4166666666665,2056.4166666666665,-52.333333333333336,5.333333333333333,-24.0
1380.0,-95604.875,-5468.0,3417.875,2056.375,-52.0,5.5,-24.0
1382.0,-95572.33333333333,-5468.0,3385.3333333333335,2056.3333333333335,-51.666666666666664,5.666666666666666,-24.0
1384.0,-95539.79166666667,-5468.0,3352.791666666667,2056.2916666666665,-51.333333333333336,5.833333333333333,-24.0
1386.0,-95507.25,-5468.0,3320.25,2056.25,-51.0,6.0,-24.0
1388.0,-95474.70833333333,-5468.0,3287.7083333333335,2056.2083333333335,-50.666666666666664,6.166666666666666,-24.0
1390.0,-95442.16666666667,-5468.0,3255.166666666667,2056.1666666666665,-50.333333333333336,6.333333333333333,-24.0
1392.0,-95409.625,-5468.0,3222.625,2056.125,-50.0,6.5,-24.0
1394.0,-95377.08333333333,-5468.0,3190.0833333333335,2056.0833333333335,-49.666666666666664,6.666666666666666,-24.0
1396.0,-95344.54166666667,-5468.0,3157.541666666667,2056.0416666666665,-49.333333333333336,6.833333333333333,-24.0
1398.0,-95328.27083333334,-5468.0,3141.2708333333335,2056.020833333333,-49.16666666666667,6.916666666666666,-24.0
1400.0,-95312.0,-5468.0,3125.0,2056.0,-49.0,7.0,-24.0
1402.0,-95312.0,-5500.583333333333,3092.4166666666665,2055.875,-48.666666666666664,7.166666666666667,-23.916666666666668
1404.0,-95312.0,-5533.166666666667,3059.8333333333335,2055.75,-48.333333333333336,7.333333333333333,-23.833333333333332
1406.0,-95312.0,-5565.75,3027.25,2055.625,-48.0,7.5,-23.75
1408.0,-95312.0,-5598.333333333333,2994.6666666666665,2055.5,-47.666666666666664,7.666666666666667,-23.666666666666668
1410.0,-95312.0,-5630.916666666667,2962.0833333333335,2055.375,-47.333333333333336,7.833333333333333,-23.583333333333332
1412.0,-95312.0,-5663.5,2929.5,2055.25,-47.0,8.0,-23.5
1414.0,-95312.0,-5696.083333333333,2896.9166666666665,2055.125,-46.666666666666664,8.166666666666666,-23.416666666666668
1416.0,-95312.0,-5728.666666666667,2864.3333333333335,2055.0,-46.333333333333336,8.333333333333334,-23.333333333333332
1418.0,-95312.0,-5761.25,2831.75,2054.875,-46.0,8.5,-23.25
1420.0,-95312.0,-5793.833333333333,2799.1666666666665,2054.75,-45.666666666666664,8.666666666666666,-23.166666666666668
1422.0,-95312.0,-5826.416666666667,2766.5833333333335,2054.625,-45.333333333333336,8.833333333333334,-23.083333333333332
1424.0,-95312.0,-5859.0,2734.0,2054.5,-45.0,9.0,-23.0
1426.0,-95312.0,-5891.583333333333,2701.4166666666665,2054.375,-44.666666666666664,9.166666666666666,-22.916666666666668
1428.0,-95312.0,-5924.166666666667,2668.8333333333335,2054.25,-44.333333333333336,9.333333333333332,-22.833333333333332
1430.0,-95312.0,-5956.75,2636.25,2054.125,-44.0,9.5,-22.75
1432.0,-95312.0,-5989.333333333333,2603.6666666666665,2054.0,-43.666666666666664,9.666666666666666,-22.666666666666668
1434.0,-95312.0,-6021.916666666667,2571.083333333333,2053.875,-43.333333333333336,9.833333333333332,-22.583333333333332
1436.0,-95312.0,-6054.5,2538.5,2053.75,-43.0,10.0,-22.5
1438.0,-95312.0,-6087.083333333333,2505.9166666666665,2053.625,-42.666666666666664,10.166666666666666,-22.416666666666668
1440.0,-95312.0,-6119.666666666667,2473.333333333333,2053.5,-42.333333333333336,10.333333333333332,-22.333333333333332
1442.0,-95312.0,-6152.25,2440.75,2053.375,-42.0,10.5,-22.25
1444.0,-95312.0,-6184.833333333333,2408.1666666666665,2053.25,-41.666666666666664,10.666666666666666,-22.166666666666668
1446.0,-95312.0,-6217.416666666667,2375.583333333333,2053.125,-41.333333333333336,10.833333333333332,-22.083333333333332
1448.0,-95312.0,-6233.708333333334,2359.2916666666665,2053.0625,-41.16666666666667,10.916666666666666,-22.041666666666664
1450.0,-95312.0,-6250.0,2343.0,2053.0,-41.0,11.0,-22.0
1452.0,-95344.54166666667,-6250.0,2310.4583333333335,2053.5416666666665,-40.708333333333336,11.166666666666666,-22.0
1454.0,-95377.08333333333,-6250.0,2277.9166666666665,2054.0833333333335,-40.416666666666664,11.333333333333334,-22.0
1456.0,-95409.625,-6250.0,2245.375,2054.625,-40.125,11.5,-22.0
1458.0,-95442.16666666667,-6250.0,2212.8333333333335,2055.1666666666665,-39.833333333333336,11.666666666666666,-22.0
1460.0,-95474.70833333333,-6250.0,2180.2916666666665,2055.7083333333335,-39.541666666666664,11.833333333333334,-22.0
1462.0,-95507.25,-6250.0,2147.75,2056.25,-39.25,12.0,-22.0
1464.0,-95539.79166666667,-6250.0,2115.2083333333335,2056.7916666666665,-38.958333333333336,12.166666666666666,-22.0
1466.0,-95572.33333333333,-6250.0,2082.6666666666665,2057.3333333333335,-38.666666666666664,12.333333333333334,-22.0
1468.0,-95604.875,-6250.0,2050.125,2057.875,-38.375,12.5,-22.0
1470.0,-95637.41666666667,-6250.0,2017.5833333333335,2058.4166666666665,-38.083333333333336,12.666666666666666,-22.0
1472.0,-95669.95833333333,-6250.0,1985.0416666666667,2058.9583333333335,-37.791666666666664,12.833333333333334,-22.0
1474.0,-95702.5,-6250.0,1952.5,2059.5,-37.5,13.0,-22.0
1476.0,-95735.04166666667,-6250.0,1919.9583333333335,2060.0416666666665,-37.208333333333336,13.166666666666666,-22.0
1478.0,-95767.58333333333,-6250.0,1887.4166666666667,2060.5833333333335,-36.916666666666664,13.333333333333332,-22.0
1480.0,-95800.125,-6250.0,1854.875,2061.125,-36.625,13.5,-22.0
1482.0,-95832.66666666667,-6250.0,1822.3333333333335,2061.6666666666665,-36.333333333333336,13.666666666666666,-22.0
1484.0,-95865.20833333333,-6250.0,1789.7916666666667,2062.2083333333335,-36.041666666666664,13.833333333333332,-22.0
1486.0,-95897.75,-6250.0,1757.25,2062.75,-35.75,14.0,-22.0
1488.0,-95930.29166666667,-6250.0,1724.7083333333335,2063.2916666666665,-35.458333333333336,14.166666666666666,-22.0
1490.0,-95962.83333333333,-6250.0,1692.1666666666667,2063.8333333333335,-35.166666666666664,14.333333333333332,-22.0
1492.0,-95995.375,-6250.0,1659.625,2064.375,-34.875,14.5,-22.0
1494.0,-96027.91666666667,-6250.0,1627.0833333333335,2064.9166666666665,-34.583333333333336,14.666666666666666,-22.0
1496.0,-96060.45833333333,-6250.0,1594.5416666666667,2065.4583333333335,-34.291666666666664,14.833333333333332,-22.0
1498.0,-96076.72916666666,-6250.0,1578.2708333333335,2065.729166666667,-34.14583333333333,14.916666666666666,-22.0
1500.0,-96093.0,-6250.0,1562.0,2066.0,-34.0,15.0,-22.0
1502.0,-96093.0,-6282.541666666667,1562.0,2065.9166666666665,-33.708333333333336,15.208333333333334,-21.916666666666668
1504.0,-96093.0,-6315.083333333333,1562.0,2065.8333333333335,-33.416666666666664,15.416666666666666,-21.833333333333332
1506.0,-96093.0,-6347.625,1562.0,2065.75,-33.125,15.625,-21.75
1508.0,-96093.0,-6380.166666666667,1562.0,2065.6666666666665,-32.833333333333336,15.833333333333334,-21.666666666666668
1510.0,-96093.0,-6412.708333333333,1562.0,2065.5833333333335,-32.541666666666664,16.041666666666668,-21.583333333333332
1512.0,-96093.0,-6445.25,1562.0,2065.5,-32.25,16.25,-21.5
1514.0,-96093.0,-6477.791666666667,1562.0,2065.4166666666665,-31.958333333333332,16.458333333333332,-21.416666666666668
1516.0,-96093.0,-6510.333333333333,1562.0,2065.3333333333335,-31.666666666666668,16.666666666666668,-21.333333333333332
1518.0,-96093.0,-6542.875,1562.0,2065.25,-31.375,16.875,-21.25
1520.0,-96093.0,-6575.416666666667,1562.0,2065.1666666666665,-31.083333333333332,17.083333333333332,-21.166666666666668
1522.0,-96093.0,-6607.958333333333,1562.0,2065.0833333333335,-30.791666666666668,17.291666666666668,-21.083333333333332
1524.0,-96093.0,-6640.5,1562.0,2065.0,-30.5,17.5,-21.0
1526.0,-96093.0,-6673.041666666667,1562.0,2064.9166666666665,-30.208333333333332,17.708333333333332,-20.916666666666668
1528.0,-96093.0,-6705.583333333333,1562.0,2064.8333333333335,-29.916666666666664,17.916666666666668,-20.833333333333332
1530.0,-96093.0,-6738.125,1562.0,2064.75,-29.625,18.125,-20.75
1532.0,-96093.0,-6770.666666666667,1562.0,2064.6666666666665,-29.333333333333332,18.333333333333332,-20.666666666666668
1534.0,-96093.0,-6803.208333333333,1562.0,2064.5833333333335,-29.041666666666664,18.541666666666668,-20.583333333333332
1536.0,-96093.0,-6835.75,1562.0,2064.5,-28.75,18.75,-20.5
1538.0,-96093.0,-6868.291666666667,1562.0,2064.4166666666665,-28.458333333333332,18.958333333333332,-20.416666666666668
1540.0,-96093.0,-6900.833333333333,1562.0,2064.3333333333335,-28.166666666666664,19.166666666666668,-20.333333333333332
1542.0,-96093.0,-6933.375,1562.0,2064.25,-27.875,19.375,-20.25
1544.0,-96093.0,-6965.916666666667,1562.0,2064.1666666666665,-27.583333333333332,19.583333333333336,-20.166666666666668
1546.0,-96093.0,-6998.458333333333,1562.0,2064.0833333333335,-27.291666666666664,19.791666666666668,-20.083333333333332
1548.0,-96093.0,-7014.729166666666,1562.0,2064.041666666667,-27.145833333333332,19.895833333333336,-20.041666666666664
1550.0,-96093.0,-7031.0,1562.0,2064.0,-27.0,20.0,-20.0
1552.0,-96125.58333333333,-7063.541666666667,1529.4583333333333,2063.5833333333335,-26.75,20.166666666666668,-19.958333333333332
1554.0,-96158.16666666667,-7096.083333333333,1496.9166666666667,2063.1666666666665,-26.5,20.333333333333332,-19.916666666666668
1556.0,-96190.75,-7128.625,1464.375,2062.75,-26.25,20.5,-19.875
1558.0,-96223.33333333333,-7161.166666666667,1431.8333333333333,2062.3333333333335,-26.0,20.666666666666668,-19.833333333333332
1560.0,-96255.91666666667,-7193.708333333333,1399.2916666666667,2061.9166666666665,-25.75,20.833333333333332,-19.791666666666668
1562.0,-96288.5,-7226.25,1366.75,2061.5,-25.5,21.0,-19.75
1564.0,-96321.08333333333,-7258.791666666667,1334.2083333333333,2061.0833333333335,-25.25,21.166666666666668,-19.708333333333332
1566.0,-96353.66666666667,-7291.333333333333,1301.6666666666667,2060.6666666666665,-25.0,21.333333333333332,-19.666666666666668
1568.0,-96386.25,-7323.875,1269.125,2060.25,-24.75,21.5,-19.625
1570.0,-96418.83333333333,-7356.416666666667,1236.5833333333335,2059.8333333333335,-24.5,21.666666666666668,-19.583333333333332
1572.0,-96451.41666666667,-7388.958333333333,1204.0416666666667,2059.4166666666665,-24.25,21.833333333333332,-19.541666666666668
1574.0,-96484.0,-7421.5,1171.5,2059.0,-24.0,22.0,-19.5
1576.0,-96516.58333333333,-7454.041666666667,1138.9583333333335,2058.5833333333335,-23.75,22.166666666666668,-19.458333333333332
1578.0,-96549.16666666667,-7486.583333333333,1106.4166666666667,2058.1666666666665,-23.5,22.333333333333332,-19.416666666666668
1580.0,-96581.75,-7519.125,1073.875,2057.75,-23.25,22.5,-19.375
1582.0,-96614.33333333333,-7551.666666666667,1041.3333333333335,2057.3333333333335,-23.0,22.666666666666668,-19.333333333333332
1584.0,-96646.91666666667,-7584.208333333333,1008.7916666666667,2056.9166666666665,-22.75,22.833333333333332,-19.291666666666668
1586.0,-96679.5,-7616.75,976.25,2056.5,-22.5,23.0,-19.25
1588.0,-96712.08333333333,-7649.291666666667,943.7083333333334,2056.0833333333335,-22.25,23.166666666666668,-19.208333333333332
1590.0,-96744.66666666667,-7681.833333333333,911.1666666666667,2055.6666666666665,-22.0,23.333333333333332,-19.166666666666668
1592.0,-96777.25,-7714.375,878.625,2055.25,-21.75,23.5,-19.125
1594.0,-96809.83333333333,-7746.916666666667,846.0833333333334,2054.8333333333335,-21.5,23.666666666666668,-19.083333333333332
1596.0,-96842.41666666667,-7779.458333333333,813.5416666666667,2054.4166666666665,-21.25,23.833333333333332,-19.041666666666668
1598.0,-96858.70833333334,-7795.729166666666,797.2708333333334,2054.208333333333,-21.125,23.916666666666664,-19.020833333333336
1600.0,-96875.0,-7812.0,781.0,2054.0,-21.0,24.0,-19.0
1602.0,-96907.54166666667,-7812.0,781.0,2054.4166666666665,-20.833333333333332,24.25,-19.0
1604.0,-96940.08333333333,-7812.0,781.0,2054.8333333333335,-20.666666666666668,24.5,-19.0
1606.0,-96972.625,-7812.0,781.0,2055.25,-20.5,24.75,-19.0
1608.0,-97005.16666666667,-7812.0,781.0,2055.6666666666665,-20.333333333333332,25.0,-19.0
1610.0,-97037.70833333333,-7812.0,781.0,2056.0833333333335,-20.166666666666668,25.25,-19.0
1612.0,-97070.25,-7812.0,781.0,2056.5,-20.0,25.5,-19.0
1614.0,-97102.79166666667,-7812.0,781.0,2056.9166666666665,-19.833333333333332,25.75,-19.0
1616.0,-97135.33333333333,-7812.0,781.0,2057.3333333333335,-19.666666666666668,26.0,-19.0
1618.0,-97167.875,-7812.0,781.0,2057.75,-19.5,26.25,-19.0
1620.0,-97200.41666666667,-7812.0,781.0,2058.1666666666665,-19.333333333333332,26.5,-19.0
1622.0,-97232.95833333333,-7812.0,781.0,2058.5833333333335,-19.166666666666668,26.75,-19.0
1624.0,-97265.5,-7812.0,781.0,2059.0,-19.0,27.0,-19.0
1626.0,-97298.04166666667,-7812.0,781.0,2059.4166666666665,-18.833333333333332,27.25,-19.0
1628.0,-97330.58333333333,-7812.0,781.0,2059.8333333333335,-18.666666666666668,27.5,-19.0
1630.0,-97363.125,-7812.0,781.0,2060.25,-18.5,27.75,-19.0
1632.0,-97395.66666666667,-7812.0,781.0,2060.6666666666665,-18.333333333333332,28.0,-19.0
1634.0,-97428.20833333333,-7812.0,781.0,2061.0833333333335,-18.166666666666668,28.25,-19.0
1636.0,-97460.75,-7812.0,781.0,2061.5,-18.0,28.5,-19.0
1638.0,-97493.29166666667,-7812.0,781.0,2061.9166666666665,-17.833333333333332,28.75,-19.0
1640.0,-97525.83333333333,-7812.0,781.0,2062.3333333333335,-17.666666666666668,29.0,-19.0
1642.0,-97558.375,-7812.0,781.0,2062.75,-17.5,29.25,-19.0
1644.0,-97590.91666666667,-7812.0,781.0,2063.1666666666665,-17.333333333333332,29.5,-19.0
1646.0,-97623.45833333333,-7812.0,781.0,2063.5833333333335,-17.166666666666668,29.75,-19.0
1648.0,-97639.72916666666,-7812.0,781.0,2063.791666666667,-17.083333333333336,29.875,-19.0
1650.0,-97656.0,-7812.0,781.0,2064.0,-17.0,30.0,-19.0
1652.0,-97656.0,-7844.541666666667,748.4583333333334,2063.375,-16.916666666666668,30.25,-18.916666666666668
1654.0,-97656.0,-7877.083333333333,715.9166666666666,2062.75,-16.833333333333332,30.5,-18.833333333333332
1656.0,-97656.0,-7909.625,683.375,2062.125,-16.75,30.75,-18.75
1658.0,-97656.0,-7942.166666666667,650.8333333333334,2061.5,-16.666666666666668,31.0,-18.666666666666668
1660.0,-97656.0,-7974.708333333333,618.2916666666667,2060.875,-16.583333333333332,31.25,-18.583333333333332
1662.0,-97656.0,-8007.25,585.75,2060.25,-16.5,31.5,-18.5
1664.0,-97656.0,-8039.791666666667,553.2083333333334,2059.625,-16.416666666666668,31.75,-18.416666666666668
1666.0,-97656.0,-8072.333333333333,520.6666666666667,2059.0,-16.333333333333332,32.0,-18.333333333333332
1668.0,-97656.0,-8104.875,488.125,2058.375,-16.25,32.25,-18.25
1670.0,-97656.0,-8137.416666666667,455.58333333333337,2057.75,-16.166666666666668,32.5,-18.166666666666668
1672.0,-97656.0,-8169.958333333333,423.0416666666667,2057.125,-16.083333333333332,32.75,-18.083333333333332
1674.0,-97656.0,-8202.5,390.5,2056.5,-16.0,33.0,-18.0
1676.0,-97656.0,-8235.041666666666,357.95833333333337,2055.875,-15.916666666666666,33.25,-17.916666666666668
1678.0,-97656.0,-8267.583333333334,325.4166666666667,2055.25,-15.833333333333334,33.5,-17.833333333333332
1680.0,-97656.0,-8300.125,292.87500000000006,2054.625,-15.75,33.75,-17.75
1682.0,-97656.0,-8332.666666666666,260.33333333333337,2054.0,-15.666666666666666,34.0,-17.666666666666668
1684.0,-97656.0,-8365.208333333334,227.79166666666674,2053.375,-15.583333333333334,34.25,-17.583333333333332
1686.0,-97656.0,-8397.75,195.25,2052.75,-15.5,34.5,-17.5
1688.0,-97656.0,-8430.291666666666,162.70833333333337,2052.125,-15.416666666666666,34.75,-17.416666666666668
1690.0,-97656.0,-8462.833333333334,130.16666666666674,2051.5,-15.333333333333334,35.0,-17.333333333333332
1692.0,-97656.0,-8495.375,97.625,2050.875,-15.25,35.25,-17.25
1694.0,-97656.0,-8527.916666666666,65.08333333333337,2050.25,-15.166666666666666,35.5,-17.166666666666668
1696.0,-97656.0,-8560.458333333334,32.54166666666674,2049.625,-15.083333333333334,35.75,-17.083333333333332
1698.0,-97656.0,-8576.729166666668,16.27083333333337,2049.3125,-15.041666666666668,35.875,-17.041666666666664
1700.0,-97656.0,-8593.0,0.0,2049.0,-15.0,36.0,-17.0
1702.0,-97721.08333333333,-8560.458333333334,-32.541666666666664,2049.4166666666665,-14.916666666666666,36.208333333333336,-17.0
1704.0,-97786.16666666667,-8527.916666666666,-65.08333333333333,2049.8333333333335,-14.833333333333334,36.416666666666664,-17.0
1706.0,-97851.25,-8495.375,-97.625,2050.25,-14.75,36.625,-17.0
1708.0,-97916.33333333333,-8462.833333333334,-130.16666666666666,2050.6666666666665,-14.666666666666666,36.833333333333336,-17.0
1710.0,-97981.41666666667,-8430.291666666666,-162.70833333333331,2051.0833333333335,-14.583333333333334,37.041666666666664,-17.0
1712.0,-98046.5,-8397.75,-195.25,2051.5,-14.5,37.25,-17.0
1714.0,-98111.58333333333,-8365.208333333334,-227.79166666666666,2051.9166666666665,-14.416666666666666,37.458333333333336,-17.0
1716.0,-98176.66666666667,-8332.666666666666,-260.3333333333333,2052.3333333333335,-14.333333333333334,37.666666666666664,-17.0
1718.0,-98241.75,-8300.125,-292.875,2052.75,-14.25,37.875,-17.0
1720.0,-98306.83333333333,-8267.583333333334,-325.41666666666663,2053.1666666666665,-14.166666666666666,38.083333333333336,-17.0
1722.0,-98371.91666666667,-8235.041666666666,-357.9583333333333,2053.5833333333335,-14.083333333333334,38.291666666666664,-17.0
1724.0,-98437.0,-8202.5,-390.5,2054.0,-14.0,38.5,-17.0
1726.0,-98502.08333333333,-8169.958333333333,-423.04166666666663,2054.4166666666665,-13.916666666666666,38.708333333333336,-17.0
1728.0,-98567.16666666667,-8137.416666666667,-455.5833333333333,2054.8333333333335,-13.833333333333334,38.916666666666664,-17.0
1730.0,-98632.25,-8104.875,-488.12499999999994,2055.25,-13.75,39.125,-17.0
1732.0,-98697.33333333333,-8072.333333333333,-520.6666666666666,2055.6666666666665,-13.666666666666666,39.333333333333336,-17.0
1734.0,-98762.41666666667,-8039.791666666667,-553.2083333333333,2056.0833333333335,-13.583333333333334,39.541666666666664,-17.0
1736.0,-98827.5,-8007.25,-585.75,2056.5,-13.5,39.75,-17.0
1738.0,-98892.58333333333,-7974.708333333333,-618.2916666666666,2056.9166666666665,-13.416666666666666,39.958333333333336,-17.0
1740.0,-98957.66666666667,-7942.166666666667,-650.8333333333333,2057.3333333333335,-13.333333333333334,40.166666666666664,-17.0
1742.0,-99022.75,-7909.625,-683.375,2057.75,-13.25,40.375,-17.0
1744.0,-99087.83333333333,-7877.083333333333,-715.9166666666666,2058.1666666666665,-13.166666666666666,40.583333333333336,-17.0
1746.0,-99152.91666666667,-7844.541666666667,-748.4583333333333,2058.5833333333335,-13.083333333333334,40.791666666666664,-17.0
1748.0,-99185.45833333334,-7828.270833333334,-764.7291666666666,2058.791666666667,-13.041666666666668,40.89583333333333,-17.0
1750.0,-99218.0,-7812.0,-781.0,2059.0,-13.0,41.0,-17.0
1752.0,-99218.0,-7844.541666666667,-781.0,2058.7083333333335,-13.041666666666666,41.25,-17.0
1754.0,-99218.0,-7877.083333333333,-781.0,2058.4166666666665,-13.083333333333334,41.5,-17.0
1756.0,-99218.0,-7909.625,-781.0,2058.125,-13.125,41.75,-17.0
1758.0,-99218.0,-7942.166666666667,-781.0,2057.8333333333335,-13.166666666666666,42.0,-17.0
1760.0,-99218.0,-7974.708333333333,-781.0,2057.5416666666665,-13.208333333333334,42.25,-17.0
1762.0,-99218.0,-8007.25,-781.0,2057.25,-13.25,42.5,-17.0
1764.0,-99218.0,-8039.791666666667,-781.0,2056.9583333333335,-13.291666666666666,42.75,-17.0
1766.0,-99218.0,-8072.333333333333,-781.0,2056.6666666666665,-13.333333333333334,43.0,-17.0
1768.0,-99218.0,-8104.875,-781.0,2056.375,-13.375,43.25,-17.0
1770.0,-99218.0,-8137.416666666667,-781.0,2056.0833333333335,-13.416666666666666,43.5,-17.0
1772.0,-99218.0,-8169.958333333333,-781.0,2055.7916666666665,-13.458333333333334,43.75,-17.0
1774.0,-99218.0,-8202.5,-781.0,2055.5,-13.5,44.0,-17.0
1776.0,-99218.0,-8235.041666666666,-781.0,2055.2083333333335,-13.541666666666666,44.25,-17.0
1778.0,-99218.0,-8267.583333333334,-781.0,2054.9166666666665,-13.583333333333334,44.5,-17.0
1780.0,-99218.0,-8300.125,-781.0,2054.625,-13.625,44.75,-17.0
1782.0,-99218.0,-8332.666666666666,-781.0,2054.3333333333335,-13.666666666666666,45.0,-17.0
1784.0,-99218.0,-8365.208333333334,-781.0,2054.0416666666665,-13.708333333333334,45.25,-17.0
1786.0,-99218.0,-8397.75,-781.0,2053.75,-13.75,45.5,-17.0
1788.0,-99218.0,-8430.291666666666,-781.0,2053.4583333333335,-13.791666666666666,45.75,-17.0
1790.0,-99218.0,-8462.833333333334,-781.0,2053.1666666666665,-13.833333333333334,46.0,-17.0
1792.0,-99218.0,-8495.375,-781.0,2052.875,-13.875,46.25,-17.0
1794.0,-99218.0,-8527.916666666666,-781.0,2052.5833333333335,-13.916666666666666,46.5,-17.0
1796.0,-99218.0,-8560.458333333334,-781.0,2052.2916666666665,-13.958333333333334,46.75,-17.0
1798.0,-99218.0,-8576.729166666668,-781.0,2052.145833333333,-13.979166666666668,46.875,-17.0
1800.0,-99218.0,-8593.0,-781.0,2052.0,-14.0,47.0,-17.0
1802.0,-99250.58333333333,-8593.0,-846.0833333333334,2052.375,-14.125,47.166666666666664,-16.958333333333332
1804.0,-99283.16666666667,-8593.0,-911.1666666666666,2052.75,-14.25,47.333333333333336,-16.916666666666668
1806.0,-99315.75,-8593.0,-976.25,2053.125,-14.375,47.5,-16.875
1808.0,-99348.33333333333,-8593.0,-1041.3333333333333,2053.5,-14.5,47.666666666666664,-16.833333333333332
1810.0,-99380.91666666667,-8593.0,-1106.4166666666665,2053.875,-14.625,47.833333333333336,-16.791666666666668
1812.0,-99413.5,-8593.0,-1171.5,2054.25,-14.75,48.0,-16.75
1814.0,-99446.08333333333,-8593.0,-1236.5833333333333,2054.625,-14.875,48.166666666666664,-16.708333333333332
1816.0,-99478.66666666667,-8593.0,-1301.6666666666665,2055.0,-15.0,48.333333333333336,-16.666666666666668
1818.0,-99511.25,-8593.0,-1366.75,2055.375,-15.125,48.5,-16.625
1820.0,-99543.83333333333,-8593.0,-1431.8333333333333,2055.75,-15.25,48.666666666666664,-16.583333333333332
1822.0,-99576.41666666667,-8593.0,-1496.9166666666665,2056.125,-15.375,48.833333333333336,-16.541666666666668
1824.0,-99609.0,-8593.0,-1562.0,2056.5,-15.5,49.0,-16.5
1826.0,-99641.58333333333,-8593.0,-1627.0833333333333,2056.875,-15.625,49.166666666666664,-16.458333333333332
1828.0,-99674.16666666667,-8593.0,-1692.1666666666665,2057.25,-15.75,49.333333333333336,-16.416666666666668
1830.0,-99706.75,-8593.0,-1757.25,2057.625,-15.875,49.5,-16.375
1832.0,-99739.33333333333,-8593.0,-1822.3333333333333,2058.0,-16.0,49.666666666666664,-16.333333333333332
1834.0,-99771.91666666667,-8593.0,-1887.4166666666665,2058.375,-16.125,49.833333333333336,-16.291666666666668
1836.0,-99804.5,-8593.0,-1952.5,2058.75,-16.25,50.0,-16.25
1838.0,-99837.08333333333,-8593.0,-2017.5833333333333,2059.125,-16.375,50.166666666666664,-16.208333333333332
1840.0,-99869.66666666667,-8593.0,-2082.6666666666665,2059.5,-16.5,50.333333333333336,-16.166666666666668
1842.0,-99902.25,-8593.0,-2147.75,2059.875,-16.625,50.5,-16.125
1844.0,-99934.83333333333,-8593.0,-2212.833333333333,2060.25,-16.75,50.666666666666664,-16.083333333333332
1846.0,-99967.41666666667,-8593.0,-2277.9166666666665,2060.625,-16.875,50.833333333333336,-16.041666666666668
1848.0,-99983.70833333334,-8593.0,-2310.458333333333,2060.8125,-16.9375,50.91666666666667,-16.020833333333336
1850.0,-100000.0,-8593.0,-2343.0,2061.0,-17.0,51.0,-16.0
1852.0,-100065.08333333333,-8625.583333333334,-2375.5833333333335,2060.9166666666665,-17.125,51.208333333333336,-16.0
1854.0,-100130.16666666667,-8658.166666666666,-2408.1666666666665,2060.8333333333335,-17.25,51.416666666666664,-16.0
1856.0,-100195.25,-8690.75,-2440.75,2060.75,-17.375,51.625,-16.0
1858.0,-100260.33333333333,-8723.333333333334,-2473.3333333333335,2060.6666666666665,-17.5,51.833333333333336,-16.0
1860.0,-100325.41666666667,-8755.916666666666,-2505.9166666666665,2060.5833333333335,-17.625,52.041666666666664,-16.0
1862.0,-100390.5,-8788.5,-2538.5,2060.5,-17.75,52.25,-16.0
1864.0,-100455.58333333333,-8821.083333333334,-2571.0833333333335,2060.4166666666665,-17.875,52.458333333333336,-16.0
1866.0,-100520.66666666667,-8853.666666666666,-2603.6666666666665,2060.3333333333335,-18.0,52.666666666666664,-16.0
1868.0,-100585.75,-8886.25,-2636.25,2060.25,-18.125,52.875,-16.0
1870.0,-100650.83333333333,-8918.833333333334,-2668.8333333333335,2060.1666666666665,-18.25,53.083333333333336,-16.0
1872.0,-100715.91666666667,-8951.416666666666,-2701.4166666666665,2060.0833333333335,-18.375,53.291666666666664,-16.0
1874.0,-100781.0,-8984.0,-2734.0,2060.0,-18.5,53.5,-16.0
1876.0,-100846.08333333333,-9016.583333333334,-2766.5833333333335,2059.9166666666665,-18.625,53.708333333333336,-16.0
1878.0,-100911.16666666667,-9049.166666666666,-2799.1666666666665,2059.8333333333335,-18.75,53.916666666666664,-16.0
1880.0,-100976.25,-9081.75,-2831.75,2059.75,-18.875,54.125,-16.0
1882.0,-101041.33333333333,-9114.333333333334,-2864.3333333333335,2059.6666666666665,-19.0,54.333333333333336,-16.0
1884.0,-101106.41666666667,-9146.916666666666,-2896.916666666667,2059.5833333333335,-19.125,54.541666666666664,-16.0
1886.0,-101171.5,-9179.5,-2929.5,2059.5,-19.25,54.75,-16.0
1888.0,-101236.58333333333,-9212.083333333334,-2962.0833333333335,2059.4166666666665,-19.375,54.958333333333336,-16.0
1890.0,-101301.66666666667,-9244.666666666666,-2994.666666666667,2059.3333333333335,-19.5,55.166666666666664,-16.0
1892.0,-101366.75,-9277.25,-3027.25,2059.25,-19.625,55.375,-16.0
1894.0,-101431.83333333333,-9309.833333333334,-3059.8333333333335,2059.1666666666665,-19.75,55.583333333333336,-16.0
1896.0,-101496.91666666667,-9342.416666666666,-3092.416666666667,2059.0833333333335,-19.875,55.791666666666664,-16.0
1898.0,-101529.45833333334,-9358.708333333332,-3108.7083333333335,2059.041666666667,-19.9375,55.89583333333333,-16.0
1900.0,-101562.0,-9375.0,-3125.0,2059.0,-20.0,56.0,-16.0
1902.0,-101562.0,-9342.416666666666,-3190.0833333333335,2059.0833333333335,-20.208333333333332,56.125,-16.041666666666668
1904.0,-101562.0,-9309.833333333334,-3255.1666666666665,2059.1666666666665,-20.416666666666668,56.25,-16.083333333333332
1906.0,-101562.0,-9277.25,-3320.25,2059.25,-20.625,56.375,-16.125
1908.0,-101562.0,-9244.666666666666,-3385.3333333333335,2059.3333333333335,-20.833333333333332,56.5,-16.166666666666668
1910.0,-101562.0,-9212.083333333334,-3450.4166666666665,2059.4166666666665,-21.041666666666668,56.625,-16.208333333333332
1912.0,-101562.0,-9179.5,-3515.5,2059.5,-21.25,56.75,-16.25
1914.0,-101562.0,-9146.916666666666,-3580.5833333333335,2059.5833333333335,-21.458333333333332,56.875,-16.291666666666668
1916.0,-101562.0,-9114.333333333334,-3645.6666666666665,2059.6666666666665,-21.666666666666668,57.0,-16.333333333333332
1918.0,-101562.0,-9081.75,-3710.75,2059.75,-21.875,57.125,-16.375
1920.0,-101562.0,-9049.166666666666,-3775.833333333333,2059.8333333333335,-22.083333333333332,57.25,-16.416666666666668
1922.0,-101562.0,-9016.583333333334,-3840.9166666666665,2059.9166666666665,-22.291666666666668,57.375,-16.458333333333332
1924.0,-101562.0,-8984.0,-3906.0,2060.0,-22.5,57.5,-16.5
1926.0,-101562.0,-8951.416666666666,-3971.083333333333,2060.0833333333335,-22.708333333333332,57.625,-16.541666666666668
1928.0,-101562.0,-8918.833333333334,-4036.1666666666665,2060.1666666666665,-22.916666666666668,57.75,-16.583333333333332
1930.0,-101562.0,-8886.25,-4101.25,2060.25,-23.125,57.875,-16.625
1932.0,-101562.0,-8853.666666666666,-4166.333333333333,2060.3333333333335,-23.333333333333332,58.0,-16.666666666666668
1934.0,-101562.0,-8821.083333333334,-4231.416666666666,2060.4166666666665,-23.541666666666668,58.125,-16.708333333333332
1936.0,-101562.0,-8788.5,-4296.5,2060.5,-23.75,58.25,-16.75
1938.0,-101562.0,-8755.916666666666,-4361.583333333333,2060.5833333333335,-23.958333333333332,58.375,-16.791666666666668
1940.0,-101562.0,-8723.333333333334,-4426.666666666666,2060.6666666666665,-24.166666666666668,58.5,-16.833333333333332
1942.0,-101562.0,-8690.75,-4491.75,2060.75,-24.375,58.625,-16.875
1944.0,-101562.0,-8658.166666666666,-4556.833333333333,2060.8333333333335,-24.583333333333336,58.75,-16.916666666666668
1946.0,-101562.0,-8625.583333333334,-4621.916666666666,2060.9166666666665,-24.791666666666668,58.875,-16.958333333333332
1948.0,-101562.0,-8609.291666666668,-4654.458333333333,2060.958333333333,-24.895833333333336,58.9375,-16.979166666666664
1950.0,-101562.0,-8593.0,-4687.0,2061.0,-25.0,59.0,-17.0
1952.0,-101627.125,-8560.458333333334,-4687.0,2061.0,-25.291666666666668,58.958333333333336,-17.041666666666668
1954.0,-101692.25,-8527.916666666666,-4687.0,2061.0,-25.583333333333332,58.916666666666664,-17.083333333333332
1956.0,-101757.375,-8495.375,-4687.0,2061.0,-25.875,58.875,-17.125
1958.0,-101822.5,-8462.833333333334,-4687.0,2061.0,-26.166666666666668,58.833333333333336,-17.166666666666668
1960.0,-101887.625,-8430.291666666666,-4687.0,2061.0,-26.458333333333332,58.791666666666664,-17.208333333333332
1962.0,-101952.75,-8397.75,-4687.0,2061.0,-26.75,58.75,-17.25
1964.0,-102017.875,-8365.208333333334,-4687.0,2061.0,-27.041666666666668,58.708333333333336,-17.291666666666668
1966.0,-102083.0,-8332.666666666666,-4687.0,2061.0,-27.333333333333332,58.666666666666664,-17.333333333333332
1968.0,-102148.125,-8300.125,-4687.0,2061.0,-27.625,58.625,-17.375
1970.0,-102213.25,-8267.583333333334,-4687.0,2061.0,-27.916666666666668,58.583333333333336,-17.416666666666668
1972.0,-102278.375,-8235.041666666666,-4687.0,2061.0,-28.208333333333332,58.541666666666664,-17.458333333333332
1974.0,-102343.5,-8202.5,-4687.0,2061.0,-28.5,58.5,-17.5
1976.0,-102408.625,-8169.958333333333,-4687.0,2061.0,-28.791666666666668,58.458333333333336,-17.541666666666668
1978.0,-102473.75,-8137.416666666667,-4687.0,2061.0,-29.083333333333336,58.416666666666664,-17.583333333333332
1980.0,-102538.875,-8104.875,-4687.0,2061.0,-29.375,58.375,-17.625
1982.0,-102604.0,-8072.333333333333,-4687.0,2061.0,-29.666666666666668,58.333333333333336,-17.666666666666668
1984.0,-102669.125,-8039.791666666667,-4687.0,2061.0,-29.958333333333336,58.291666666666664,-17.708333333333332
1986.0,-102734.25,-8007.25,-4687.0,2061.0,-30.25,58.25,-17.75
1988.0,-102799.375,-7974.708333333333,-4687.0,2061.0,-30.541666666666668,58.208333333333336,-17.791666666666668
1990.0,-102864.5,-7942.166666666667,-4687.0,2061.0,-30.833333333333336,58.166666666666664,-17.833333333333332
1992.0,-102929.625,-7909.625,-4687.0,2061.0,-31.125,58.125,-17.875
1994.0,-102994.75,-7877.083333333333,-4687.0,2061.0,-31.416666666666668,58.083333333333336,-17.916666666666668
1996.0,-103059.875,-7844.541666666667,-4687.0,2061.0,-31.708333333333336,58.041666666666664,-17.958333333333332
1998.0,-103092.4375,-7828.270833333334,-4687.0,2061.0,-31.854166666666668,58.02083333333333,-17.979166666666664
2000.0,-103125.0,-7812.0,-4687.0,2061.0,-32.0,58.0,-18.0
2002.0,-103157.54166666667,-7812.0,-4719.541666666667,2060.6666666666665,-32.333333333333336,57.958333333333336,-18.041666666666668
2004.0,-103190.08333333333,-7812.0,-4752.083333333333,2060.3333333333335,-32.666666666666664,57.916666666666664,-18.083333333333332
2006.0,-103222.625,-7812.0,-4784.625,2060.0,-33.0,57.875,-18.125
2008.0,-103255.16666666667,-7812.0,-4817.166666666667,2059.6666666666665,-33.333333333333336,57.833333333333336,-18.166666666666668
2010.0,-103287.70833333333,-7812.0,-4849.708333333333,2059.3333333333335,-33.666666666666664,57.791666666666664,-18.208333333333332
2012.0,-103320.25,-7812.0,-4882.25,2059.0,-34.0,57.75,-18.25
2014.0,-103352.79166666667,-7812.0,-4914.791666666667,2058.6666666666665,-34.333333333333336,57.708333333333336,-18.291666666666668
2016.0,-103385.33333333333,-7812.0,-4947.333333333333,2058.3333333333335,-34.666666666666664,57.666666666666664,-18.333333333333332
2018.0,-103417.875,-7812.0,-4979.875,2058.0,-35.0,57.625,-18.375
2020.0,-103450.41666666667,-7812.0,-5012.416666666667,2057.6666666666665,-35.333333333333336,57.583333333333336,-18.416666666666668
2022.0,-103482.95833333333,-7812.0,-5044.958333333333,2057.3333333333335,-35.666666666666664,57.541666666666664,-18.458333333333332
2024.0,-103515.5,-7812.0,-5077.5,2057.0,-36.0,57.5,-18.5
2026.0,-103548.04166666667,-7812.0,-5110.041666666667,2056.6666666666665,-36.333333333333336,57.458333333333336,-18.541666666666668
2028.0,-103580.58333333333,-7812.0,-5142.583333333333,2056.3333333333335,-36.666666666666664,57.416666666666664,-18.583333333333332
2030.0,-103613.125,-7812.0,-5175.125,2056.0,-37.0,57.375,-18.625
2032.0,-103645.66666666667,-7812.0,-5207.666666666667,2055.6666666666665,-37.333333333333336,57.333333333333336,-18.666666666666668
2034.0,-103678.20833333333,-7812.0,-5240.208333333333,2055.3333333333335,-37.666666666666664,57.291666666666664,-18.708333333333332
2036.0,-103710.75,-7812.0,-5272.75,2055.0,-38.0,57.25,-18.75
2038.0,-103743.29166666667,-7812.0,-5305.291666666667,2054.6666666666665,-38.333333333333336,57.208333333333336,-18.791666666666668
2040.0,-103775.83333333333,-7812.0,-5337.833333333333,2054.3333333333335,-38.666666666666664,57.166666666666664,-18.833333333333332
2042.0,-103808.375,-7812.0,-5370.375,2054.0,-39.0,57.125,-18.875
2044.0,-103840.91666666667,-7812.0,-5402.916666666667,2053.6666666666665,-39.333333333333336,57.083333333333336,-18.916666666666668
2046.0,-103873.45833333333,-7812.0,-5435.458333333333,2053.3333333333335,-39.666666666666664,57.041666666666664,-18.958333333333332
2048.0,-103889.72916666666,-7812.0,-5451.729166666666,2053.166666666667,-39.83333333333333,57.02083333333333,-18.979166666666664
2050.0,-103906.0,-7812.0,-5468.0,2053.0,-40.0,57.0,-19.0
2052.0,-103938.54166666667,-7812.0,-5468.0,2053.375,-40.5,56.916666666666664,-19.083333333333332
2054.0,-103971.08333333333,-7812.0,-5468.0,2053.75,-41.0,56.833333333333336,-19.166666666666668
2056.0,-104003.625,-7812.0,-5468.0,2054.125,-41.5,56.75,-19.25
2058.0,-104036.16666666667,-7812.0,-5468.0,2054.5,-42.0,56.666666666666664,-19.333333333333332
2060.0,-104068.70833333333,-7812.0,-5468.0,2054.875,-42.5,56.583333333333336,-19.416666666666668
2062.0,-104101.25,-7812.0,-5468.0,2055.25,-43.0,56.5,-19.5
2064.0,-104133.79166666667,-7812.0,-5468.0,2055.625,-43.5,56.416666666666664,-19.583333333333332
2066.0,-104166.33333333333,-7812.0,-5468.0,2056.0,-44.0,56.333333333333336,-19.666666666666668
2068.0,-104198.875,-7812.0,-5468.0,2056.375,-44.5,56.25,-19.75
2070.0,-104231.41666666667,-7812.0,-5468.0,2056.75,-45.0,56.166666666666664,-19.833333333333332
2072.0,-104263.95833333333,-7812.0,-5468.0,2057.125,-45.5,56.083333333333336,-19.916666666666668
2074.0,-104296.5,-7812.0,-5468.0,2057.5,-46.0,56.0,-20.0
2076.0,-104329.04166666667,-7812.0,-5468.0,2057.875,-46.5,55.916666666666664,-20.083333333333332
2078.0,-104361.58333333333,-7812.0,-5468.0,2058.25,-47.0,55.833333333333336,-20.166666666666668
2080.0,-104394.125,-7812.0,-5468.0,2058.625,-47.5,55.75,-20.25
2082.0,-104426.66666666667,-7812.0,-5468.0,2059.0,-48.0,55.666666666666664,-20.333333333333332
2084.0,-104459.20833333333,-7812.0,-5468.0,2059.375,-48.5,55.583333333333336,-20.416666666666668
2086.0,-104491.75,-7812.0,-5468.0,2059.75,-49.0,55.5,-20.5
2088.0,-104524.29166666667,-7812.0,-5468.0,2060.125,-49.5,55.416666666666664,-20.583333333333332
2090.0,-104556.83333333333,-7812.0,-5468.0,2060.5,-50.0,55.333333333333336,-20.666666666666668
2092.0,-104589.375,-7812.0,-5468.0,2060.875,-50.5,55.25,-20.75
2094.0,-104621.91666666667,-7812.0,-5468.0,2061.25,-51.0,55.166666666666664,-20.833333333333332
2096.0,-104654.45833333333,-7812.0,-5468.0,2061.625,-51.5,55.083333333333336,-20.916666666666668
2098.0,-104670.72916666666,-7812.0,-5468.0,2061.8125,-51.75,55.04166666666667,-20.958333333333336
2100.0,-104687.0,-7812.0,-5468.0,2062.0,-52.0,55.0,-21.0
2102.0,-104752.125,-7812.0,-5500.583333333333,2061.9583333333335,-52.333333333333336,54.916666666666664,-21.041666666666668
2104.0,-104817.25,-7812.0,-5533.166666666667,2061.9166666666665,-52.666666666666664,54.833333333333336,-21.083333333333332
2106.0,-104882.375,-7812.0,-5565.75,2061.875,-53.0,54.75,-21.125
2108.0,-104947.5,-7812.0,-5598.333333333333,2061.8333333333335,-53.333333333333336,54.666666666666664,-21.166666666666668
2110.0,-105012.625,-7812.0,-5630.916666666667,2061.7916666666665,-53.666666666666664,54.583333333333336,-21.208333333333332
2112.0,-105077.75,-7812.0,-5663.5,2061.75,-54.0,54.5,-21.25
2114.0,-105142.875,-7812.0,-5696.083333333333,2061.7083333333335,-54.333333333333336,54.416666666666664,-21.291666666666668
2116.0,-105208.0,-7812.0,-5728.666666666667,2061.6666666666665,-54.666666666666664,54.333333333333336,-21.333333333333332
2118.0,-105273.125,-7812.0,-5761.25,2061.625,-55.0,54.25,-21.375
2120.0,-105338.25,-7812.0,-5793.833333333333,2061.5833333333335,-55.333333333333336,54.166666666666664,-21.416666666666668
2122.0,-105403.375,-7812.0,-5826.416666666667,2061.5416666666665,-55.666666666666664,54.083333333333336,-21.458333333333332
2124.0,-105468.5,-7812.0,-5859.0,2061.5,-56.0,54.0,-21.5
2126.0,-105533.625,-7812.0,-5891.583333333333,2061.4583333333335,-56.333333333333336,53.916666666666664,-21.541666666666668
2128.0,-105598.75,-7812.0,-5924.166666666667,2061.4166666666665,-56.666666666666664,53.833333333333336,-21.583333333333332
2130.0,-105663.875,-7812.0,-5956.75,2061.375,-57.0,53.75,-21.625
2132.0,-105729.0,-7812.0,-5989.333333333333,2061.3333333333335,-57.333333333333336,53.666666666666664,-21.666666666666668
2134.0,-105794.125,-7812.0,-6021.916666666667,2061.2916666666665,-57.666666666666664,53.583333333333336,-21.708333333333332
2136.0,-105859.25,-7812.0,-6054.5,2061.25,-58.0,53.5,-21.75
2138.0,-105924.375,-7812.0,-6087.083333333333,2061.2083333333335,-58.333333333333336,53.416666666666664,-21.791666666666668
2140.0,-105989.5,-7812.0,-6119.666666666667,2061.1666666666665,-58.666666666666664,53.333333333333336,-21.833333333333332
2142.0,-106054.625,-7812.0,-6152.25,2061.125,-59.0,53.25,-21.875
2144.0,-106119.75,-7812.0,-6184.833333333333,2061.0833333333335,-59.333333333333336,53.166666666666664,-21.916666666666668
2146.0,-106184.875,-7812.0,-6217.416666666667,2061.0416666666665,-59.666666666666664,53.083333333333336,-21.958333333333332
2148.0,-106217.4375,-7812.0,-6233.708333333334,2061.020833333333,-59.83333333333333,53.04166666666667,-21.979166666666664
2150.0,-106250.0,-7812.0,-6250.0,2061.0,-60.0,53.0,-22.0
2152.0,-106250.0,-7714.333333333333,-6217.416666666667,2061.2083333333335,-60.666666666666664,52.708333333333336,-22.208333333333332
2154.0,-106250.0,-7616.666666666667,-6184.833333333333,2061.4166666666665,-61.333333333333336,52.416666666666664,-22.416666666666668
2156.0,-106250.0,-7519.0,-6152.25,2061.625,-62.0,52.125,-22.625
2158.0,-106250.0,-7421.333333333333,-6119.666666666667,2061.8333333333335,-62.666666666666664,51.833333333333336,-22.833333333333332
2160.0,-106250.0,-7323.666666666667,-6087.083333333333,2062.0416666666665,-63.333333333333336,51.541666666666664,-23.041666666666668
2162.0,-106250.0,-7226.0,-6054.5,2062.25,-64.0,51.25,-23.25
2164.0,-106250.0,-7128.333333333333,-6021.916666666667,2062.4583333333335,-64.66666666666667,50.958333333333336,-23.458333333333332
2166.0,-106250.0,-7030.666666666667,-5989.333333333333,2062.6666666666665,-65.33333333333333,50.666666666666664,-23.666666666666668
2168.0,-106250.0,-6933.0,-5956.75,2062.875,-66.0,50.375,-23.875
2170.0,-106250.0,-6835.333333333333,-5924.166666666667,2063.0833333333335,-66.66666666666667,50.083333333333336,-24.083333333333332
2172.0,-106250.0,-6737.666666666666,-5891.583333333333,2063.2916666666665,-67.33333333333333,49.791666666666664,-24.291666666666668
2174.0,-106250.0,-6640.0,-5859.0,2063.5,-68.0,49.5,-24.5
2176.0,-106250.0,-6542.333333333333,-5826.416666666667,2063.7083333333335,-68.66666666666667,49.208333333333336,-24.708333333333332
2178.0,-106250.0,-6444.666666666666,-5793.833333333333,2063.9166666666665,-69.33333333333333,48.916666666666664,-24.916666666666668
2180.0,-106250.0,-6347.0,-5761.25,2064.125,-70.0,48.625,-25.125
2182.0,-106250.0,-6249.333333333333,-5728.666666666667,2064.3333333333335,-70.66666666666667,48.333333333333336,-25.333333333333332
2184.0,-106250.0,-6151.666666666666,-5696.083333333333,2064.5416666666665,-71.33333333333333,48.041666666666664,-25.541666666666668
2186.0,-106250.0,-6054.0,-5663.5,2064.75,-72.0,47.75,-25.75
2188.0,-106250.0,-5956.333333333333,-5630.916666666667,2064.9583333333335,-72.66666666666667,47.458333333333336,-25.958333333333332
2190.0,-106250.0,-5858.666666666666,-5598.333333333333,2065.1666666666665,-73.33333333333333,47.166666666666664,-26.166666666666668
2192.0,-106250.0,-5761.0,-5565.75,2065.375,-74.0,46.875,-26.375
2194.0,-106250.0,-5663.333333333333,-5533.166666666667,2065.5833333333335,-74.66666666666667,46.583333333333336,-26.583333333333336
2196.0,-106250.0,-5565.666666666666,-5500.583333333333,2065.7916666666665,-75.33333333333333,46.291666666666664,-26.791666666666668
2198.0,-106250.0,-5516.833333333333,-5484.291666666666,2065.895833333333,-75.66666666666666,46.14583333333333,-26.895833333333336
2200.0,-106250.0,-5468.0,-5468.0,2066.0,-76.0,46.0,-27.0
2202.0,-106217.41666666667,-5500.583333333333,-5435.458333333333,2065.6666666666665,-76.25,45.791666666666664,-27.0
2204.0,-106184.83333333333,-5533.166666666667,-5402.916666666667,2065.3333333333335,-76.5,45.583333333333336,-27.0
2206.0,-106152.25,-5565.75,-5370.375,2065.0,-76.75,45.375,-27.0
2208.0,-106119.66666666667,-5598.333333333333,-5337.833333333333,2064.6666666666665,-77.0,45.166666666666664,-27.0
2210.0,-106087.08333333333,-5630.916666666667,-5305.291666666667,2064.3333333333335,-77.25,44.958333333333336,-27.0
2212.0,-106054.5,-5663.5,-5272.75,2064.0,-77.5,44.75,-27.0
2214.0,-106021.91666666667,-5696.083333333333,-5240.208333333333,2063.6666666666665,-77.75,44.541666666666664,-27.0
2216.0,-105989.33333333333,-5728.666666666667,-5207.666666666667,2063.3333333333335,-78.0,44.333333333333336,-27.0
2218.0,-105956.75,-5761.25,-5175.125,2063.0,-78.25,44.125,-27.0
2220.0,-105924.16666666667,-5793.833333333333,-5142.583333333333,2062.6666666666665,-78.5,43.916666666666664,-27.0
2222.0,-105891.58333333333,-5826.416666666667,-5110.041666666667,2062.3333333333335,-78.75,43.708333333333336,-27.0
2224.0,-105859.0,-5859.0,-5077.5,2062.0,-79.0,43.5,-27.0
2226.0,-105826.41666666667,-5891.583333333333,-5044.958333333333,2061.6666666666665,-79.25,43.291666666666664,-27.0
2228.0,-105793.83333333333,-5924.166666666667,-5012.416666666667,2061.3333333333335,-79.5,43.083333333333336,-27.0
2230.0,-105761.25,-5956.75,-4979.875,2061.0,-79.75,42.875,-27.0
2232.0,-105728.66666666667,-5989.333333333333,-4947.333333333333,2060.6666666666665,-80.0,42.666666666666664,-27.0
2234.0,-105696.08333333333,-6021.916666666667,-4914.791666666667,2060.3333333333335,-80.25,42.458333333333336,-27.0
2236.0,-105663.5,-6054.5,-4882.25,2060.0,-80.5,42.25,-27.0
2238.0,-105630.91666666667,-6087.083333333333,-4849.708333333333,2059.6666666666665,-80.75,42.041666666666664,-27.0
2240.0,-105598.33333333333,-6119.666666666667,-4817.166666666667,2059.3333333333335,-81.0,41.833333333333336,-27.0
2242.0,-105565.75,-6152.25,-4784.625,2059.0,-81.25,41.625,-27.0
2244.0,-105533.16666666667,-6184.833333333333,-4752.083333333333,2058.6666666666665,-81.5,41.416666666666664,-27.0
2246.0,-105500.58333333333,-6217.416666666667,-4719.541666666667,2058.3333333333335,-81.75,41.208333333333336,-27.0
2248.0,-105484.29166666666,-6233.708333333334,-4703.270833333334,2058.166666666667,-81.875,41.10416666666667,-27.0
2250.0,-105468.0,-6250.0,-4687.0,2058.0,-82.0,41.0,-27.0
2252.0,-105435.45833333333,-6184.875,-4687.0,2057.9583333333335,-82.25,40.791666666666664,-27.041666666666668
2254.0,-105402.91666666667,-6119.75,-4687.0,2057.9166666666665,-82.5,40.583333333333336,-27.083333333333332
2256.0,-105370.375,-6054.625,-4687.0,2057.875,-82.75,40.375,-27.125
2258.0,-105337.83333333333,-5989.5,-4687.0,2057.8333333333335,-83.0,40.166666666666664,-27.166666666666668
2260.0,-105305.29166666667,-5924.375,-4687.0,2057.7916666666665,-83.25,39.958333333333336,-27.208333333333332
2262.0,-105272.75,-5859.25,-4687.0,2057.75,-83.5,39.75,-27.25
2264.0,-105240.20833333333,-5794.125,-4687.0,2057.7083333333335,-83.75,39.541666666666664,-27.291666666666668
2266.0,-105207.66666666667,-5729.0,-4687.0,2057.6666666666665,-84.0,39.333333333333336,-27.333333333333332
2268.0,-105175.125,-5663.875,-4687.0,2057.625,-84.25,39.125,-27.375
2270.0,-105142.58333333333,-5598.75,-4687.0,2057.5833333333335,-84.5,38.916666666666664,-27.416666666666668
2272.0,-105110.04166666667,-5533.625,-4687.0,2057.5416666666665,-84.75,38.708333333333336,-27.458333333333332
2274.0,-105077.5,-5468.5,-4687.0,2057.5,-85.0,38.5,-27.5
2276.0,-105044.95833333333,-5403.375,-4687.0,2057.4583333333335,-85.25,38.291666666666664,-27.541666666666668
2278.0,-105012.41666666667,-5338.25,-4687.0,2057.4166666666665,-85.5,38.083333333333336,-27.583333333333332
2280.0,-104979.875,-5273.125,-4687.0,2057.375,-85.75,37.875,-27.625
2282.0,-104947.33333333333,-5208.0,-4687.0,2057.3333333333335,-86.0,37.666666666666664,-27.666666666666668
2284.0,-104914.79166666667,-5142.875,-4687.0,2057.2916666666665,-86.25,37.458333333333336,-27.708333333333332
2286.0,-104882.25,-5077.75,-4687.0,2057.25,-86.5,37.25,-27.75
2288.0,-104849.70833333333,-5012.625,-4687.0,2057.2083333333335,-86.75,37.041666666666664,-27.791666666666668
2290.0,-104817.16666666667,-4947.5,-4687.0,2057.1666666666665,-87.0,36.833333333333336,-27.833333333333332
2292.0,-104784.625,-4882.375,-4687.0,2057.125,-87.25,36.625,-27.875
2294.0,-104752.08333333333,-4817.25,-4687.0,2057.0833333333335,-87.5,36.416666666666664,-27.916666666666668
2296.0,-104719.54166666667,-4752.125,-4687.0,2057.0416666666665,-87.75,36.208333333333336,-27.958333333333332
2298.0,-104703.27083333334,-4719.5625,-4687.0,2057.020833333333,-87.875,36.10416666666667,-27.979166666666664
2300.0,-104687.0,-4687.0,-4687.0,2057.0,-88.0,36.0,-28.0
2302.0,-104687.0,-4719.541666666667,-4621.916666666667,2057.0,-88.33333333333333,35.708333333333336,-28.0
2304.0,-104687.0,-4752.083333333333,-4556.833333333333,2057.0,-88.66666666666667,35.416666666666664,-28.0
2306.0,-104687.0,-4784.625,-4491.75,2057.0,-89.0,35.125,-28.0
2308.0,-104687.0,-4817.166666666667,-4426.666666666667,2057.0,-89.33333333333333,34.833333333333336,-28.0
2310.0,-104687.0,-4849.708333333333,-4361.583333333333,2057.0,-89.66666666666667,34.541666666666664,-28.0
2312.0,-104687.0,-4882.25,-4296.5,2057.0,-90.0,34.25,-28.0
2314.0,-104687.0,-4914.791666666667,-4231.416666666667,2057.0,-90.33333333333333,33.958333333333336,-28.0
2316.0,-104687.0,-4947.333333333333,-4166.333333333333,2057.0,-90.66666666666667,33.666666666666664,-28.0
2318.0,-104687.0,-4979.875,-4101.25,2057.0,-91.0,33.375,-28.0
2320.0,-104687.0,-5012.416666666667,-4036.166666666667,2057.0,-91.33333333333333,33.083333333333336,-28.0
2322.0,-104687.0,-5044.958333333333,-3971.0833333333335,2057.0,-91.66666666666667,32.791666666666664,-28.0
2324.0,-104687.0,-5077.5,-3906.0,2057.0,-92.0,32.5,-28.0
2326.0,-104687.0,-5110.041666666667,-3840.916666666667,2057.0,-92.33333333333333,32.208333333333336,-28.0
2328.0,-104687.0,-5142.583333333333,-3775.8333333333335,2057.0,-92.66666666666667,31.916666666666664,-28.0
2330.0,-104687.0,-5175.125,-3710.75,2057.0,-93.0,31.625,-28.0
2332.0,-104687.0,-5207.666666666667,-3645.666666666667,2057.0,-93.33333333333333,31.333333333333332,-28.0
2334.0,-104687.0,-5240.208333333333,-3580.5833333333335,2057.0,-93.66666666666667,31.041666666666664,-28.0
2336.0,-104687.0,-5272.75,-3515.5,2057.0,-94.0,30.75,-28.0
2338.0,-104687.0,-5305.291666666667,-3450.416666666667,2057.0,-94.33333333333333,30.458333333333332,-28.0
2340.0,-104687.0,-5337.833333333333,-3385.3333333333335,2057.0,-94.66666666666667,30.166666666666664,-28.0
2342.0,-104687.0,-5370.375,-3320.25,2057.0,-95.0,29.875,-28.0
2344.0,-104687.0,-5402.916666666667,-3255.166666666667,2057.0,-95.33333333333333,29.583333333333332,-28.0
2346.0,-104687.0,-5435.458333333333,-3190.0833333333335,2057.0,-95.66666666666667,29.291666666666664,-28.0
2348.0,-104687.0,-5451.729166666666,-3157.541666666667,2057.0,-95.83333333333334,29.145833333333332,-28.0
2350.0,-104687.0,-5468.0,-3125.0,2057.0,-96.0,29.0,-28.0
2352.0,-104654.45833333333,-5500.583333333333,-3059.875,2056.8333333333335,-96.20833333333333,28.791666666666668,-28.041666666666668
2354.0,-104621.91666666667,-5533.166666666667,-2994.75,2056.6666666666665,-96.41666666666667,28.583333333333332,-28.083333333333332
2356.0,-104589.375,-5565.75,-2929.625,2056.5,-96.625,28.375,-28.125
2358.0,-104556.83333333333,-5598.333333333333,-2864.5,2056.3333333333335,-96.83333333333333,28.166666666666668,-28.166666666666668
2360.0,-104524.29166666667,-5630.916666666667,-2799.375,2056.1666666666665,-97.04166666666667,27.958333333333332,-28.208333333333332
2362.0,-104491.75,-5663.5,-2734.25,2056.0,-97.25,27.75,-28.25
2364.0,-104459.20833333333,-5696.083333333333,-2669.125,2055.8333333333335,-97.45833333333333,27.541666666666668,-28.291666666666668
2366.0,-104426.66666666667,-5728.666666666667,-2604.0,2055.6666666666665,-97.66666666666667,27.333333333333332,-28.333333333333332
2368.0,-104394.125,-5761.25,-2538.875,2055.5,-97.875,27.125,-28.375
2370.0,-104361.58333333333,-5793.833333333333,-2473.75,2055.3333333333335,-98.08333333333333,26.916666666666668,-28.416666666666668
2372.0,-104329.04166666667,-5826.416666666667,-2408.625,2055.1666666666665,-98.29166666666667,26.708333333333332,-28.458333333333332
2374.0,-104296.5,-5859.0,-2343.5,2055.0,-98.5,26.5,-28.5
2376.0,-104263.95833333333,-5891.583333333333,-2278.375,2054.8333333333335,-98.70833333333333,26.291666666666668,-28.541666666666668
2378.0,-104231.41666666667,-5924.166666666667,-2213.25,2054.6666666666665,-98.91666666666667,26.083333333333332,-28.583333333333332
2380.0,-104198.875,-5956.75,-2148.125,2054.5,-99.125,25.875,-28.625
2382.0,-104166.33333333333,-5989.333333333333,-2083.0,2054.3333333333335,-99.33333333333333,25.666666666666668,-28.666666666666668
2384.0,-104133.79166666667,-6021.916666666667,-2017.875,2054.1666666666665,-99.54166666666667,25.458333333333332,-28.708333333333332
2386.0,-104101.25,-6054.5,-1952.75,2054.0,-99.75,25.25,-28.75
2388.0,-104068.70833333333,-6087.083333333333,-1887.625,2053.8333333333335,-99.95833333333333,25.041666666666668,-28.791666666666668
2390.0,-104036.16666666667,-6119.666666666667,-1822.5,2053.6666666666665,-100.16666666666667,24.833333333333332,-28.833333333333332
2392.0,-104003.625,-6152.25,-1757.375,2053.5,-100.375,24.625,-28.875
2394.0,-103971.08333333333,-6184.833333333333,-1692.25,2053.3333333333335,-100.58333333333333,24.416666666666664,-28.916666666666668
2396.0,-103938.54166666667,-6217.416666666667,-1627.125,2053.1666666666665,-100.79166666666667,24.208333333333332,-28.958333333333332
2398.0,-103922.27083333334,-6233.708333333334,-1594.5625,2053.083333333333,-100.89583333333334,24.104166666666664,-28.979166666666664
2400.0,-103906.0,-6250.0,-1562.0,2053.0,-101.0,24.0,-29.0
2402.0,-103840.875,-6184.875,-1529.4583333333333,2053.125,-101.08333333333333,23.833333333333332,-29.0
2404.0,-103775.75,-6119.75,-1496.9166666666667,2053.25,-101.16666666666667,23.666666666666668,-29.0
2406.0,-103710.625,-6054.625,-1464.375,2053.375,-101.25,23.5,-29.0
2408.0,-103645.5,-5989.5,-1431.8333333333333,2053.5,-101.33333333333333,23.333333333333332,-29.0
2410.0,-103580.375,-5924.375,-1399.2916666666667,2053.625,-101.41666666666667,23.166666666666668,-29.0
2412.0,-103515.25,-5859.25,-1366.75,2053.75,-101.5,23.0,-29.0
2414.0,-103450.125,-5794.125,-1334.2083333333333,2053.875,-101.58333333333333,22.833333333333332,-29.0
2416.0,-103385.0,-5729.0,-1301.6666666666667,2054.0,-101.66666666666667,22.666666666666668,-29.0
2418.0,-103319.875,-5663.875,-1269.125,2054.125,-101.75,22.5,-29.0
2420.0,-103254.75,-5598.75,-1236.5833333333335,2054.25,-101.83333333333333,22.333333333333332,-29.0
2422.0,-103189.625,-5533.625,-1204.0416666666667,2054.375,-101.91666666666667,22.166666666666668,-29.0
2424.0,-103124.5,-5468.5,-1171.5,2054.5,-102.0,22.0,-29.0
2426.0,-103059.375,-5403.375,-1138.9583333333335,2054.625,-102.08333333333333,21.833333333333332,-29.0
2428.0,-102994.25,-5338.25,-1106.4166666666667,2054.75,-102.16666666666667,21.666666666666668,-29.0
2430.0,-102929.125,-5273.125,-1073.875,2054.875,-102.25,21.5,-29.0
2432.0,-102864.0,-5208.0,-1041.3333333333335,2055.0,-102.33333333333333,21.333333333333332,-29.0
2434.0,-102798.875,-5142.875,-1008.7916666666667,2055.125,-102.41666666666667,21.166666666666668,-29.0
2436.0,-102733.75,-5077.75,-976.25,2055.25,-102.5,21.0,-29.0
2438.0,-102668.625,-5012.625,-943.7083333333334,2055.375,-102.58333333333333,20.833333333333332,-29.0
2440.0,-102603.5,-4947.5,-911.1666666666667,2055.5,-102.66666666666667,20.666666666666668,-29.0
2442.0,-102538.375,-4882.375,-878.625,2055.625,-102.75,20.5,-29.0
2444.0,-102473.25,-4817.25,-846.0833333333334,2055.75,-102.83333333333333,20.333333333333332,-29.0
2446.0,-102408.125,-4752.125,-813.5416666666667,2055.875,-102.91666666666667,20.166666666666668,-29.0
2448.0,-102375.5625,-4719.5625,-797.2708333333334,2055.9375,-102.95833333333334,20.083333333333336,-29.0
2450.0,-102343.0,-4687.0,-781.0,2056.0,-103.0,20.0,-29.0
2452.0,-102375.58333333333,-4719.541666666667,-715.9166666666666,2056.0416666666665,-103.0,19.833333333333332,-29.0
2454.0,-102408.16666666667,-4752.083333333333,-650.8333333333334,2056.0833333333335,-103.0,19.666666666666668,-29.0
2456.0,-102440.75,-4784.625,-585.75,2056.125,-103.0,19.5,-29.0
2458.0,-102473.33333333333,-4817.166666666667,-520.6666666666667,2056.1666666666665,-103.0,19.333333333333332,-29.0
2460.0,-102505.91666666667,-4849.708333333333,-455.58333333333337,2056.2083333333335,-103.0,19.166666666666668,-29.0
2462.0,-102538.5,-4882.25,-390.5,2056.25,-103.0,19.0,-29.0
2464.0,-102571.08333333333,-4914.791666666667,-325.4166666666667,2056.2916666666665,-103.0,18.833333333333332,-29.0
2466.0,-102603.66666666667,-4947.333333333333,-260.33333333333337,2056.3333333333335,-103.0,18.666666666666668,-29.0
2468.0,-102636.25,-4979.875,-195.25,2056.375,-103.0,18.5,-29.0
2470.0,-102668.83333333333,-5012.416666666667,-130.16666666666674,2056.4166666666665,-103.0,18.333333333333332,-29.0
2472.0,-102701.41666666667,-5044.958333333333,-65.08333333333337,2056.4583333333335,-103.0,18.166666666666668,-29.0
2474.0,-102734.0,-5077.5,0.0,2056.5,-103.0,18.0,-29.0
2476.0,-102766.58333333333,-5110.041666666667,65.08333333333326,2056.5416666666665,-103.0,17.833333333333332,-29.0
2478.0,-102799.16666666667,-5142.583333333333,130.16666666666663,2056.5833333333335,-103.0,17.666666666666668,-29.0
2480.0,-102831.75,-5175.125,195.2499999999999,2056.625,-103.0,17.5,-29.0
2482.0,-102864.33333333333,-5207.666666666667,260.33333333333326,2056.6666666666665,-103.0,17.333333333333332,-29.0
2484.0,-102896.91666666667,-5240.208333333333,325.4166666666665,2056.7083333333335,-103.0,17.166666666666668,-29.0
2486.0,-102929.5,-5272.75,390.5,2056.75,-103.0,17.0,-29.0
2488.0,-102962.08333333333,-5305.291666666667,455.58333333333326,2056.7916666666665,-103.0,16.833333333333332,-29.0
2490.0,-102994.66666666667,-5337.833333333333,520.6666666666665,2056.8333333333335,-103.0,16.666666666666668,-29.0
2492.0,-103027.25,-5370.375,585.75,2056.875,-103.0,16.5,-29.0
2494.0,-103059.83333333333,-5402.916666666667,650.8333333333333,2056.9166666666665,-103.0,16.333333333333332,-29.0
2496.0,-103092.41666666667,-5435.458333333333,715.9166666666665,2056.9583333333335,-103.0,16.166666666666668,-29.0
2498.0,-103108.70833333334,-5451.729166666666,748.4583333333333,2056.979166666667,-103.0,16.083333333333336,-29.0
2500.0,-103125.0,-5468.0,781.0,2057.0,-103.0,16.0,-29.0
2502.0,-102962.20833333333,-5500.583333333333,813.5416666666666,2056.6666666666665,-102.83333333333333,15.958333333333334,-29.0
2504.0,-102799.41666666667,-5533.166666666667,846.0833333333334,2056.3333333333335,-102.66666666666667,15.916666666666666,-29.0
