timestamp,accX,accY,accZ,pressure,gyroX,gyroY,gyroZ
0.0,-92968.0,-7031.0,3906.0,2063.0,-34.0,28.0,-14.0
2.0,-93261.0,-6965.875,3645.625,2062.625,-33.625,28.791666666666668,-14.875
4.0,-93554.0,-6900.75,3385.25,2062.25,-33.25,29.583333333333332,-15.75
6.0,-93847.0,-6835.625,3124.875,2061.875,-32.875,30.375,-16.625
8.0,-94140.0,-6770.5,2864.5,2061.5,-32.5,31.166666666666668,-17.5
10.0,-94433.0,-6705.375,2604.125,2061.125,-32.125,31.958333333333332,-18.375
12.0,-94726.0,-6640.25,2343.75,2060.75,-31.75,32.75,-19.25
14.0,-95019.0,-6575.125,2083.375,2060.375,-31.375,33.541666666666664,-20.125
16.0,-95312.0,-6510.0,1823.0,2060.0,-31.0,34.333333333333336,-21.0
18.0,-95605.0,-6444.875,1562.625,2059.625,-30.625,35.125,-21.875
20.0,-95898.0,-6379.75,1302.25,2059.25,-30.25,35.916666666666664,-22.75
22.0,-96191.0,-6314.625,1041.875,2058.875,-29.875,36.70833333333333,-23.625
24.0,-96484.0,-6249.5,781.5,2058.5,-29.5,37.5,-24.5
26.0,-96777.0,-6184.375,521.125,2058.125,-29.125,38.291666666666664,-25.375
28.0,-97070.0,-6119.25,260.75,2057.75,-28.75,39.08333333333333,-26.25
30.0,-97363.0,-6054.125,0.375,2057.375,-28.375,39.875,-27.125
32.0,-97656.0,-5989.0,-260.0,2057.0,-28.0,40.666666666666664,-28.0
34.0,-97949.0,-5923.875,-520.375,2056.625,-27.625,41.45833333333333,-28.875
36.0,-98242.0,-5858.75,-780.75,2056.25,-27.25,42.25,-29.75
38.0,-98535.0,-5793.625,-1041.125,2055.875,-26.875,43.041666666666664,-30.625
40.0,-98828.0,-5728.5,-1301.5,2055.5,-26.5,43.83333333333333,-31.5
42.0,-99121.0,-5663.375,-1561.875,2055.125,-26.125,44.625,-32.375
44.0,-99414.0,-5598.25,-1822.25,2054.75,-25.75,45.416666666666664,-33.25
46.0,-99707.0,-5533.125,-2082.625,2054.375,-25.375,46.20833333333333,-34.125
48.0,-99853.5,-5500.5625,-2212.8125,2054.1875,-25.1875,46.604166666666664,-34.5625
50.0,-100000.0,-5468.0,-2343.0,2054.0,-25.0,47.0,-35.0
52.0,-100032.54166666667,-5435.458333333333,-2375.5833333333335,2054.0,-25.125,47.083333333333336,-35.041666666666664
54.0,-100065.08333333333,-5402.916666666667,-2408.1666666666665,2054.0,-25.25,47.166666666666664,-35.083333333333336
56.0,-100097.625,-5370.375,-2440.75,2054.0,-25.375,47.25,-35.125
58.0,-100130.16666666667,-5337.833333333333,-2473.3333333333335,2054.0,-25.5,47.333333333333336,-35.166666666666664
60.0,-100162.70833333333,-5305.291666666667,-2505.9166666666665,2054.0,-25.625,47.416666666666664,-35.208333333333336
62.0,-100195.25,-5272.75,-2538.5,2054.0,-25.75,47.5,-35.25
64.0,-100227.79166666667,-5240.208333333333,-2571.0833333333335,2054.0,-25.875,47.583333333333336,-35.291666666666664
66.0,-100260.33333333333,-5207.666666666667,-2603.6666666666665,2054.0,-26.0,47.666666666666664,-35.333333333333336
68.0,-100292.875,-5175.125,-2636.25,2054.0,-26.125,47.75,-35.375
70.0,-100325.41666666667,-5142.583333333333,-2668.8333333333335,2054.0,-26.25,47.833333333333336,-35.416666666666664
72.0,-100357.95833333333,-5110.041666666667,-2701.4166666666665,2054.0,-26.375,47.916666666666664,-35.458333333333336
74.0,-100390.5,-5077.5,-2734.0,2054.0,-26.5,48.0,-35.5
76.0,-100423.04166666667,-5044.958333333333,-2766.5833333333335,2054.0,-26.625,48.083333333333336,-35.541666666666664
78.0,-100455.58333333333,-5012.416666666667,-2799.1666666666665,2054.0,-26.75,48.166666666666664,-35.583333333333336
80.0,-100488.125,-4979.875,-2831.75,2054.0,-26.875,48.25,-35.625
82.0,-100520.66666666667,-4947.333333333333,-2864.3333333333335,2054.0,-27.0,48.333333333333336,-35.666666666666664
84.0,-100553.20833333333,-4914.791666666667,-2896.916666666667,2054.0,-27.125,48.416666666666664,-35.708333333333336
86.0,-100585.75,-4882.25,-2929.5,2054.0,-27.25,48.5,-35.75
88.0,-100618.29166666667,-4849.708333333333,-2962.0833333333335,2054.0,-27.375,48.583333333333336,-35.791666666666664
90.0,-100650.83333333333,-4817.166666666667,-2994.666666666667,2054.0,-27.5,48.666666666666664,-35.833333333333336
92.0,-100683.375,-4784.625,-3027.25,2054.0,-27.625,48.75,-35.875
94.0,-100715.91666666667,-4752.083333333333,-3059.8333333333335,2054.0,-27.75,48.833333333333336,-35.916666666666664
96.0,-100748.45833333333,-4719.541666666667,-3092.416666666667,2054.0,-27.875,48.916666666666664,-35.958333333333336
98.0,-100764.72916666666,-4703.270833333334,-3108.7083333333335,2054.0,-27.9375,48.95833333333333,-35.97916666666667
100.0,-100781.0,-4687.0,-3125.0,2054.0,-28.0,49.0,-36.0
102.0,-100813.54166666667,-4719.541666666667,-3125.0,2053.9583333333335,-28.125,48.958333333333336,-36.0
104.0,-100846.08333333333,-4752.083333333333,-3125.0,2053.9166666666665,-28.25,48.916666666666664,-36.0
106.0,-100878.625,-4784.625,-3125.0,2053.875,-28.375,48.875,-36.0
108.0,-100911.16666666667,-4817.166666666667,-3125.0,2053.8333333333335,-28.5,48.833333333333336,-36.0
110.0,-100943.70833333333,-4849.708333333333,-3125.0,2053.7916666666665,-28.625,48.791666666666664,-36.0
112.0,-100976.25,-4882.25,-3125.0,2053.75,-28.75,48.75,-36.0
114.0,-101008.79166666667,-4914.791666666667,-3125.0,2053.7083333333335,-28.875,48.708333333333336,-36.0
116.0,-101041.33333333333,-4947.333333333333,-3125.0,2053.6666666666665,-29.0,48.666666666666664,-36.0
118.0,-101073.875,-4979.875,-3125.0,2053.625,-29.125,48.625,-36.0
120.0,-101106.41666666667,-5012.416666666667,-3125.0,2053.5833333333335,-29.25,48.583333333333336,-36.0
122.0,-101138.95833333333,-5044.958333333333,-3125.0,2053.5416666666665,-29.375,48.541666666666664,-36.0
124.0,-101171.5,-5077.5,-3125.0,2053.5,-29.5,48.5,-36.0
126.0,-101204.04166666667,-5110.041666666667,-3125.0,2053.4583333333335,-29.625,48.458333333333336,-36.0
128.0,-101236.58333333333,-5142.583333333333,-3125.0,2053.4166666666665,-29.75,48.416666666666664,-36.0
130.0,-101269.125,-5175.125,-3125.0,2053.375,-29.875,48.375,-36.0
132.0,-101301.66666666667,-5207.666666666667,-3125.0,2053.3333333333335,-30.0,48.333333333333336,-36.0
134.0,-101334.20833333333,-5240.208333333333,-3125.0,2053.2916666666665,-30.125,48.291666666666664,-36.0
136.0,-101366.75,-5272.75,-3125.0,2053.25,-30.25,48.25,-36.0
138.0,-101399.29166666667,-5305.291666666667,-3125.0,2053.2083333333335,-30.375,48.208333333333336,-36.0
140.0,-101431.83333333333,-5337.833333333333,-3125.0,2053.1666666666665,-30.5,48.166666666666664,-36.0
142.0,-101464.375,-5370.375,-3125.0,2053.125,-30.625,48.125,-36.0
144.0,-101496.91666666667,-5402.916666666667,-3125.0,2053.0833333333335,-30.75,48.083333333333336,-36.0
146.0,-101529.45833333333,-5435.458333333333,-3125.0,2053.0416666666665,-30.875,48.041666666666664,-36.0
148.0,-101545.72916666666,-5451.729166666666,-3125.0,2053.020833333333,-30.9375,48.02083333333333,-36.0
150.0,-101562.0,-5468.0,-3125.0,2053.0,-31.0,48.0,-36.0
152.0,-101562.0,-5468.0,-3125.0,2052.5833333333335,-31.208333333333332,48.083333333333336,-35.916666666666664
154.0,-101562.0,-5468.0,-3125.0,2052.1666666666665,-31.416666666666668,48.166666666666664,-35.833333333333336
156.0,-101562.0,-5468.0,-3125.0,2051.75,-31.625,48.25,-35.75
158.0,-101562.0,-5468.0,-3125.0,2051.3333333333335,-31.833333333333332,48.333333333333336,-35.666666666666664
160.0,-101562.0,-5468.0,-3125.0,2050.9166666666665,-32.041666666666664,48.416666666666664,-35.583333333333336
162.0,-101562.0,-5468.0,-3125.0,2050.5,-32.25,48.5,-35.5
164.0,-101562.0,-5468.0,-3125.0,2050.0833333333335,-32.458333333333336,48.583333333333336,-35.416666666666664
166.0,-101562.0,-5468.0,-3125.0,2049.6666666666665,-32.666666666666664,48.666666666666664,-35.333333333333336
168.0,-101562.0,-5468.0,-3125.0,2049.25,-32.875,48.75,-35.25
170.0,-101562.0,-5468.0,-3125.0,2048.8333333333335,-33.083333333333336,48.833333333333336,-35.166666666666664
172.0,-101562.0,-5468.0,-3125.0,2048.4166666666665,-33.291666666666664,48.916666666666664,-35.083333333333336
174.0,-101562.0,-5468.0,-3125.0,2048.0,-33.5,49.0,-35.0
176.0,-101562.0,-5468.0,-3125.0,2047.5833333333333,-33.708333333333336,49.083333333333336,-34.916666666666664
178.0,-101562.0,-5468.0,-3125.0,2047.1666666666667,-33.916666666666664,49.166666666666664,-34.833333333333336
180.0,-101562.0,-5468.0,-3125.0,2046.75,-34.125,49.25,-34.75
182.0,-101562.0,-5468.0,-3125.0,2046.3333333333333,-34.333333333333336,49.333333333333336,-34.666666666666664
184.0,-101562.0,-5468.0,-3125.0,2045.9166666666667,-34.541666666666664,49.416666666666664,-34.583333333333336
186.0,-101562.0,-5468.0,-3125.0,2045.5,-34.75,49.5,-34.5
188.0,-101562.0,-5468.0,-3125.0,2045.0833333333333,-34.958333333333336,49.583333333333336,-34.416666666666664
190.0,-101562.0,-5468.0,-3125.0,2044.6666666666667,-35.166666666666664,49.666666666666664,-34.333333333333336
192.0,-101562.0,-5468.0,-3125.0,2044.25,-35.375,49.75,-34.25
194.0,-101562.0,-5468.0,-3125.0,2043.8333333333333,-35.583333333333336,49.833333333333336,-34.166666666666664
196.0,-101562.0,-5468.0,-3125.0,2043.4166666666667,-35.791666666666664,49.916666666666664,-34.083333333333336
198.0,-101562.0,-5468.0,-3125.0,2043.2083333333335,-35.89583333333333,49.95833333333333,-34.04166666666667
200.0,-101562.0,-5468.0,-3125.0,2043.0,-36.0,50.0,-34.0
202.0,-101562.0,-5468.0,-3092.4166666666665,2043.25,-36.125,50.0,-34.0
204.0,-101562.0,-5468.0,-3059.8333333333335,2043.5,-36.25,50.0,-34.0
206.0,-101562.0,-5468.0,-3027.25,2043.75,-36.375,50.0,-34.0
208.0,-101562.0,-5468.0,-2994.6666666666665,2044.0,-36.5,50.0,-34.0
210.0,-101562.0,-5468.0,-2962.0833333333335,2044.25,-36.625,50.0,-34.0
212.0,-101562.0,-5468.0,-2929.5,2044.5,-36.75,50.0,-34.0
214.0,-101562.0,-5468.0,-2896.9166666666665,2044.75,-36.875,50.0,-34.0
216.0,-101562.0,-5468.0,-2864.3333333333335,2045.0,-37.0,50.0,-34.0
218.0,-101562.0,-5468.0,-2831.75,2045.25,-37.125,50.0,-34.0
220.0,-101562.0,-5468.0,-2799.1666666666665,2045.5,-37.25,50.0,-34.0
222.0,-101562.0,-5468.0,-2766.5833333333335,2045.75,-37.375,50.0,-34.0
224.0,-101562.0,-5468.0,-2734.0,2046.0,-37.5,50.0,-34.0
226.0,-101562.0,-5468.0,-2701.4166666666665,2046.25,-37.625,50.0,-34.0
228.0,-101562.0,-5468.0,-2668.8333333333335,2046.5,-37.75,50.0,-34.0
230.0,-101562.0,-5468.0,-2636.25,2046.75,-37.875,50.0,-34.0
232.0,-101562.0,-5468.0,-2603.6666666666665,2047.0,-38.0,50.0,-34.0
234.0,-101562.0,-5468.0,-2571.083333333333,2047.25,-38.125,50.0,-34.0
236.0,-101562.0,-5468.0,-2538.5,2047.5,-38.25,50.0,-34.0
238.0,-101562.0,-5468.0,-2505.9166666666665,2047.75,-38.375,50.0,-34.0
240.0,-101562.0,-5468.0,-2473.333333333333,2048.0,-38.5,50.0,-34.0
242.0,-101562.0,-5468.0,-2440.75,2048.25,-38.625,50.0,-34.0
244.0,-101562.0,-5468.0,-2408.1666666666665,2048.5,-38.75,50.0,-34.0
246.0,-101562.0,-5468.0,-2375.583333333333,2048.75,-38.875,50.0,-34.0
248.0,-101562.0,-5468.0,-2359.2916666666665,2048.875,-38.9375,50.0,-34.0
250.0,-101562.0,-5468.0,-2343.0,2049.0,-39.0,50.0,-34.0
252.0,-101562.0,-5435.458333333333,-2310.4583333333335,2049.1666666666665,-39.208333333333336,49.958333333333336,-33.958333333333336
254.0,-101562.0,-5402.916666666667,-2277.9166666666665,2049.3333333333335,-39.416666666666664,49.916666666666664,-33.916666666666664
256.0,-101562.0,-5370.375,-2245.375,2049.5,-39.625,49.875,-33.875
258.0,-101562.0,-5337.833333333333,-2212.8333333333335,2049.6666666666665,-39.833333333333336,49.833333333333336,-33.833333333333336
260.0,-101562.0,-5305.291666666667,-2180.2916666666665,2049.8333333333335,-40.041666666666664,49.791666666666664,-33.791666666666664
262.0,-101562.0,-5272.75,-2147.75,2050.0,-40.25,49.75,-33.75
264.0,-101562.0,-5240.208333333333,-2115.2083333333335,2050.1666666666665,-40.458333333333336,49.708333333333336,-33.708333333333336
266.0,-101562.0,-5207.666666666667,-2082.6666666666665,2050.3333333333335,-40.666666666666664,49.666666666666664,-33.666666666666664
268.0,-101562.0,-5175.125,-2050.125,2050.5,-40.875,49.625,-33.625
270.0,-101562.0,-5142.583333333333,-2017.5833333333335,2050.6666666666665,-41.083333333333336,49.583333333333336,-33.583333333333336
272.0,-101562.0,-5110.041666666667,-1985.0416666666667,2050.8333333333335,-41.291666666666664,49.541666666666664,-33.541666666666664
274.0,-101562.0,-5077.5,-1952.5,2051.0,-41.5,49.5,-33.5
276.0,-101562.0,-5044.958333333333,-1919.9583333333335,2051.1666666666665,-41.708333333333336,49.458333333333336,-33.458333333333336
278.0,-101562.0,-5012.416666666667,-1887.4166666666667,2051.3333333333335,-41.916666666666664,49.416666666666664,-33.416666666666664
280.0,-101562.0,-4979.875,-1854.875,2051.5,-42.125,49.375,-33.375
282.0,-101562.0,-4947.333333333333,-1822.3333333333335,2051.6666666666665,-42.333333333333336,49.333333333333336,-33.333333333333336
284.0,-101562.0,-4914.791666666667,-1789.7916666666667,2051.8333333333335,-42.541666666666664,49.291666666666664,-33.291666666666664
286.0,-101562.0,-4882.25,-1757.25,2052.0,-42.75,49.25,-33.25
288.0,-101562.0,-4849.708333333333,-1724.7083333333335,2052.1666666666665,-42.958333333333336,49.208333333333336,-33.208333333333336
290.0,-101562.0,-4817.166666666667,-1692.1666666666667,2052.3333333333335,-43.166666666666664,49.166666666666664,-33.166666666666664
292.0,-101562.0,-4784.625,-1659.625,2052.5,-43.375,49.125,-33.125
294.0,-101562.0,-4752.083333333333,-1627.0833333333335,2052.6666666666665,-43.583333333333336,49.083333333333336,-33.083333333333336
296.0,-101562.0,-4719.541666666667,-1594.5416666666667,2052.8333333333335,-43.791666666666664,49.041666666666664,-33.041666666666664
298.0,-101562.0,-4703.270833333334,-1578.2708333333335,2052.916666666667,-43.89583333333333,49.02083333333333,-33.02083333333333
300.0,-101562.0,-4687.0,-1562.0,2053.0,-44.0,49.0,-33.0
302.0,-101562.0,-4719.541666666667,-1562.0,2052.5,-44.166666666666664,49.0,-32.958333333333336
304.0,-101562.0,-4752.083333333333,-1562.0,2052.0,-44.333333333333336,49.0,-32.916666666666664
306.0,-101562.0,-4784.625,-1562.0,2051.5,-44.5,49.0,-32.875
308.0,-101562.0,-4817.166666666667,-1562.0,2051.0,-44.666666666666664,49.0,-32.833333333333336
310.0,-101562.0,-4849.708333333333,-1562.0,2050.5,-44.833333333333336,49.0,-32.791666666666664
312.0,-101562.0,-4882.25,-1562.0,2050.0,-45.0,49.0,-32.75
314.0,-101562.0,-4914.791666666667,-1562.0,2049.5,-45.166666666666664,49.0,-32.708333333333336
316.0,-101562.0,-4947.333333333333,-1562.0,2049.0,-45.333333333333336,49.0,-32.666666666666664
318.0,-101562.0,-4979.875,-1562.0,2048.5,-45.5,49.0,-32.625
320.0,-101562.0,-5012.416666666667,-1562.0,2048.0,-45.666666666666664,49.0,-32.583333333333336
322.0,-101562.0,-5044.958333333333,-1562.0,2047.5,-45.833333333333336,49.0,-32.541666666666664
324.0,-101562.0,-5077.5,-1562.0,2047.0,-46.0,49.0,-32.5
326.0,-101562.0,-5110.041666666667,-1562.0,2046.5,-46.166666666666664,49.0,-32.458333333333336
328.0,-101562.0,-5142.583333333333,-1562.0,2046.0,-46.333333333333336,49.0,-32.416666666666664
330.0,-101562.0,-5175.125,-1562.0,2045.5,-46.5,49.0,-32.375
332.0,-101562.0,-5207.666666666667,-1562.0,2045.0,-46.666666666666664,49.0,-32.333333333333336
334.0,-101562.0,-5240.208333333333,-1562.0,2044.5,-46.833333333333336,49.0,-32.291666666666664
336.0,-101562.0,-5272.75,-1562.0,2044.0,-47.0,49.0,-32.25
338.0,-101562.0,-5305.291666666667,-1562.0,2043.5,-47.166666666666664,49.0,-32.208333333333336
340.0,-101562.0,-5337.833333333333,-1562.0,2043.0,-47.333333333333336,49.0,-32.166666666666664
342.0,-101562.0,-5370.375,-1562.0,2042.5,-47.5,49.0,-32.125
344.0,-101562.0,-5402.916666666667,-1562.0,2042.0,-47.666666666666664,49.0,-32.083333333333336
346.0,-101562.0,-5435.458333333333,-1562.0,2041.5,-47.833333333333336,49.0,-32.041666666666664
348.0,-101562.0,-5451.729166666666,-1562.0,2041.25,-47.91666666666667,49.0,-32.02083333333333
350.0,-101562.0,-5468.0,-1562.0,2041.0,-48.0,49.0,-32.0
352.0,-101594.54166666667,-5468.0,-1594.5416666666667,2041.2916666666667,-48.125,48.958333333333336,-31.958333333333332
354.0,-101627.08333333333,-5468.0,-1627.0833333333333,2041.5833333333333,-48.25,48.916666666666664,-31.916666666666668
356.0,-101659.625,-5468.0,-1659.625,2041.875,-48.375,48.875,-31.875
358.0,-101692.16666666667,-5468.0,-1692.1666666666667,2042.1666666666667,-48.5,48.833333333333336,-31.833333333333332
360.0,-101724.70833333333,-5468.0,-1724.7083333333333,2042.4583333333333,-48.625,48.791666666666664,-31.791666666666668
362.0,-101757.25,-5468.0,-1757.25,2042.75,-48.75,48.75,-31.75
364.0,-101789.79166666667,-5468.0,-1789.7916666666667,2043.0416666666667,-48.875,48.708333333333336,-31.708333333333332
366.0,-101822.33333333333,-5468.0,-1822.3333333333333,2043.3333333333333,-49.0,48.666666666666664,-31.666666666666668
368.0,-101854.875,-5468.0,-1854.875,2043.625,-49.125,48.625,-31.625
370.0,-101887.41666666667,-5468.0,-1887.4166666666665,2043.9166666666667,-49.25,48.583333333333336,-31.583333333333332
372.0,-101919.95833333333,-5468.0,-1919.9583333333333,2044.2083333333333,-49.375,48.541666666666664,-31.541666666666668
374.0,-101952.5,-5468.0,-1952.5,2044.5,-49.5,48.5,-31.5
376.0,-101985.04166666667,-5468.0,-1985.0416666666665,2044.7916666666667,-49.625,48.458333333333336,-31.458333333333332
378.0,-102017.58333333333,-5468.0,-2017.5833333333333,2045.0833333333333,-49.75,48.416666666666664,-31.416666666666668
380.0,-102050.125,-5468.0,-2050.125,2045.375,-49.875,48.375,-31.375
382.0,-102082.66666666667,-5468.0,-2082.6666666666665,2045.6666666666667,-50.0,48.333333333333336,-31.333333333333332
384.0,-102115.20833333333,-5468.0,-2115.208333333333,2045.9583333333333,-50.125,48.291666666666664,-31.291666666666668
386.0,-102147.75,-5468.0,-2147.75,2046.25,-50.25,48.25,-31.25
388.0,-102180.29166666667,-5468.0,-2180.2916666666665,2046.5416666666667,-50.375,48.208333333333336,-31.208333333333332
390.0,-102212.83333333333,-5468.0,-2212.833333333333,2046.8333333333333,-50.5,48.166666666666664,-31.166666666666668
392.0,-102245.375,-5468.0,-2245.375,2047.125,-50.625,48.125,-31.125
394.0,-102277.91666666667,-5468.0,-2277.9166666666665,2047.4166666666667,-50.75,48.083333333333336,-31.083333333333332
396.0,-102310.45833333333,-5468.0,-2310.458333333333,2047.7083333333333,-50.875,48.041666666666664,-31.041666666666668
398.0,-102326.72916666666,-5468.0,-2326.7291666666665,2047.8541666666665,-50.9375,48.02083333333333,-31.020833333333336
400.0,-102343.0,-5468.0,-2343.0,2048.0,-51.0,48.0,-31.0
402.0,-102310.45833333333,-5435.458333333333,-2343.0,2048.1666666666665,-51.083333333333336,48.0,-31.0
404.0,-102277.91666666667,-5402.916666666667,-2343.0,2048.3333333333335,-51.166666666666664,48.0,-31.0
406.0,-102245.375,-5370.375,-2343.0,2048.5,-51.25,48.0,-31.0
408.0,-102212.83333333333,-5337.833333333333,-2343.0,2048.6666666666665,-51.333333333333336,48.0,-31.0
410.0,-102180.29166666667,-5305.291666666667,-2343.0,2048.8333333333335,-51.416666666666664,48.0,-31.0
412.0,-102147.75,-5272.75,-2343.0,2049.0,-51.5,48.0,-31.0
414.0,-102115.20833333333,-5240.208333333333,-2343.0,2049.1666666666665,-51.583333333333336,48.0,-31.0
416.0,-102082.66666666667,-5207.666666666667,-2343.0,2049.3333333333335,-51.666666666666664,48.0,-31.0
418.0,-102050.125,-5175.125,-2343.0,2049.5,-51.75,48.0,-31.0
420.0,-102017.58333333333,-5142.583333333333,-2343.0,2049.6666666666665,-51.833333333333336,48.0,-31.0
422.0,-101985.04166666667,-5110.041666666667,-2343.0,2049.8333333333335,-51.916666666666664,48.0,-31.0
424.0,-101952.5,-5077.5,-2343.0,2050.0,-52.0,48.0,-31.0
426.0,-101919.95833333333,-5044.958333333333,-2343.0,2050.1666666666665,-52.083333333333336,48.0,-31.0
428.0,-101887.41666666667,-5012.416666666667,-2343.0,2050.3333333333335,-52.166666666666664,48.0,-31.0
430.0,-101854.875,-4979.875,-2343.0,2050.5,-52.25,48.0,-31.0
432.0,-101822.33333333333,-4947.333333333333,-2343.0,2050.6666666666665,-52.333333333333336,48.0,-31.0
434.0,-101789.79166666667,-4914.791666666667,-2343.0,2050.8333333333335,-52.416666666666664,48.0,-31.0
436.0,-101757.25,-4882.25,-2343.0,2051.0,-52.5,48.0,-31.0
438.0,-101724.70833333333,-4849.708333333333,-2343.0,2051.1666666666665,-52.583333333333336,48.0,-31.0
440.0,-101692.16666666667,-4817.166666666667,-2343.0,2051.3333333333335,-52.666666666666664,48.0,-31.0
442.0,-101659.625,-4784.625,-2343.0,2051.5,-52.75,48.0,-31.0
444.0,-101627.08333333333,-4752.083333333333,-2343.0,2051.6666666666665,-52.833333333333336,48.0,-31.0
446.0,-101594.54166666667,-4719.541666666667,-2343.0,2051.8333333333335,-52.916666666666664,48.0,-31.0
448.0,-101578.27083333334,-4703.270833333334,-2343.0,2051.916666666667,-52.95833333333333,48.0,-31.0
450.0,-101562.0,-4687.0,-2343.0,2052.0,-53.0,48.0,-31.0
452.0,-101562.0,-4719.541666666667,-2277.9166666666665,2052.375,-53.166666666666664,47.833333333333336,-31.0
454.0,-101562.0,-4752.083333333333,-2212.8333333333335,2052.75,-53.333333333333336,47.666666666666664,-31.0
456.0,-101562.0,-4784.625,-2147.75,2053.125,-53.5,47.5,-31.0
458.0,-101562.0,-4817.166666666667,-2082.6666666666665,2053.5,-53.666666666666664,47.333333333333336,-31.0
460.0,-101562.0,-4849.708333333333,-2017.5833333333335,2053.875,-53.833333333333336,47.166666666666664,-31.0
462.0,-101562.0,-4882.25,-1952.5,2054.25,-54.0,47.0,-31.0
464.0,-101562.0,-4914.791666666667,-1887.4166666666667,2054.625,-54.166666666666664,46.833333333333336,-31.0
466.0,-101562.0,-4947.333333333333,-1822.3333333333335,2055.0,-54.333333333333336,46.666666666666664,-31.0
468.0,-101562.0,-4979.875,-1757.25,2055.375,-54.5,46.5,-31.0
470.0,-101562.0,-5012.416666666667,-1692.1666666666667,2055.75,-54.666666666666664,46.333333333333336,-31.0
472.0,-101562.0,-5044.958333333333,-1627.0833333333335,2056.125,-54.833333333333336,46.166666666666664,-31.0
474.0,-101562.0,-5077.5,-1562.0,2056.5,-55.0,46.0,-31.0
476.0,-101562.0,-5110.041666666667,-1496.9166666666667,2056.875,-55.166666666666664,45.833333333333336,-31.0
478.0,-101562.0,-5142.583333333333,-1431.8333333333335,2057.25,-55.333333333333336,45.666666666666664,-31.0
480.0,-101562.0,-5175.125,-1366.75,2057.625,-55.5,45.5,-31.0
482.0,-101562.0,-5207.666666666667,-1301.6666666666667,2058.0,-55.666666666666664,45.333333333333336,-31.0
484.0,-101562.0,-5240.208333333333,-1236.5833333333335,2058.375,-55.833333333333336,45.166666666666664,-31.0
486.0,-101562.0,-5272.75,-1171.5,2058.75,-56.0,45.0,-31.0
488.0,-101562.0,-5305.291666666667,-1106.4166666666667,2059.125,-56.166666666666664,44.833333333333336,-31.0
490.0,-101562.0,-5337.833333333333,-1041.3333333333335,2059.5,-56.333333333333336,44.666666666666664,-31.0
492.0,-101562.0,-5370.375,-976.25,2059.875,-56.5,44.5,-31.0
494.0,-101562.0,-5402.916666666667,-911.1666666666667,2060.25,-56.666666666666664,44.333333333333336,-31.0
496.0,-101562.0,-5435.458333333333,-846.0833333333335,2060.625,-56.833333333333336,44.166666666666664,-31.0
498.0,-101562.0,-5451.729166666666,-813.5416666666667,2060.8125,-56.91666666666667,44.08333333333333,-31.0
500.0,-101562.0,-5468.0,-781.0,2061.0,-57.0,44.0,-31.0
502.0,-101562.0,-5402.916666666667,-748.4583333333334,2060.5833333333335,-57.041666666666664,44.0,-30.958333333333332
504.0,-101562.0,-5337.833333333333,-715.9166666666666,2060.1666666666665,-57.083333333333336,44.0,-30.916666666666668
506.0,-101562.0,-5272.75,-683.375,2059.75,-57.125,44.0,-30.875
508.0,-101562.0,-5207.666666666667,-650.8333333333334,2059.3333333333335,-57.166666666666664,44.0,-30.833333333333332
510.0,-101562.0,-5142.583333333333,-618.2916666666667,2058.9166666666665,-57.208333333333336,44.0,-30.791666666666668
512.0,-101562.0,-5077.5,-585.75,2058.5,-57.25,44.0,-30.75
514.0,-101562.0,-5012.416666666667,-553.2083333333334,2058.0833333333335,-57.291666666666664,44.0,-30.708333333333332
516.0,-101562.0,-4947.333333333333,-520.6666666666667,2057.6666666666665,-57.333333333333336,44.0,-30.666666666666668
518.0,-101562.0,-4882.25,-488.125,2057.25,-57.375,44.0,-30.625
520.0,-101562.0,-4817.166666666667,-455.58333333333337,2056.8333333333335,-57.416666666666664,44.0,-30.583333333333332
522.0,-101562.0,-4752.083333333333,-423.0416666666667,2056.4166666666665,-57.458333333333336,44.0,-30.541666666666668
524.0,-101562.0,-4687.0,-390.5,2056.0,-57.5,44.0,-30.5
526.0,-101562.0,-4621.916666666667,-357.95833333333337,2055.5833333333335,-57.541666666666664,44.0,-30.458333333333332
528.0,-101562.0,-4556.833333333333,-325.4166666666667,2055.1666666666665,-57.583333333333336,44.0,-30.416666666666668
530.0,-101562.0,-4491.75,-292.87500000000006,2054.75,-57.625,44.0,-30.375
532.0,-101562.0,-4426.666666666667,-260.33333333333337,2054.3333333333335,-57.666666666666664,44.0,-30.333333333333332
534.0,-101562.0,-4361.583333333334,-227.79166666666674,2053.9166666666665,-57.708333333333336,44.0,-30.291666666666668
536.0,-101562.0,-4296.5,-195.25,2053.5,-57.75,44.0,-30.25
538.0,-101562.0,-4231.416666666667,-162.70833333333337,2053.0833333333335,-57.791666666666664,44.0,-30.208333333333332
540.0,-101562.0,-4166.333333333334,-130.16666666666674,2052.6666666666665,-57.833333333333336,44.0,-30.166666666666668
542.0,-101562.0,-4101.25,-97.625,2052.25,-57.875,44.0,-30.125
544.0,-101562.0,-4036.166666666667,-65.08333333333337,2051.8333333333335,-57.916666666666664,44.0,-30.083333333333332
546.0,-101562.0,-3971.0833333333335,-32.54166666666674,2051.4166666666665,-57.958333333333336,44.0,-30.041666666666668
548.0,-101562.0,-3938.541666666667,-16.27083333333337,2051.208333333333,-57.97916666666667,44.0,-30.020833333333336
550.0,-101562.0,-3906.0,0.0,2051.0,-58.0,44.0,-30.0
552.0,-101496.91666666667,-3873.4583333333335,-65.08333333333333,2051.4166666666665,-58.041666666666664,43.916666666666664,-29.958333333333332
554.0,-101431.83333333333,-3840.9166666666665,-130.16666666666666,2051.8333333333335,-58.083333333333336,43.833333333333336,-29.916666666666668
556.0,-101366.75,-3808.375,-195.25,2052.25,-58.125,43.75,-29.875
558.0,-101301.66666666667,-3775.8333333333335,-260.3333333333333,2052.6666666666665,-58.166666666666664,43.666666666666664,-29.833333333333332
560.0,-101236.58333333333,-3743.2916666666665,-325.41666666666663,2053.0833333333335,-58.208333333333336,43.583333333333336,-29.791666666666668
562.0,-101171.5,-3710.75,-390.5,2053.5,-58.25,43.5,-29.75
564.0,-101106.41666666667,-3678.2083333333335,-455.5833333333333,2053.9166666666665,-58.291666666666664,43.416666666666664,-29.708333333333332
566.0,-101041.33333333333,-3645.6666666666665,-520.6666666666666,2054.3333333333335,-58.333333333333336,43.333333333333336,-29.666666666666668
568.0,-100976.25,-3613.125,-585.75,2054.75,-58.375,43.25,-29.625
570.0,-100911.16666666667,-3580.5833333333335,-650.8333333333333,2055.1666666666665,-58.416666666666664,43.166666666666664,-29.583333333333332
572.0,-100846.08333333333,-3548.0416666666665,-715.9166666666666,2055.5833333333335,-58.458333333333336,43.083333333333336,-29.541666666666668
574.0,-100781.0,-3515.5,-781.0,2056.0,-58.5,43.0,-29.5
576.0,-100715.91666666667,-3482.9583333333335,-846.0833333333333,2056.4166666666665,-58.541666666666664,42.916666666666664,-29.458333333333332
578.0,-100650.83333333333,-3450.4166666666665,-911.1666666666666,2056.8333333333335,-58.583333333333336,42.833333333333336,-29.416666666666668
580.0,-100585.75,-3417.875,-976.2499999999999,2057.25,-58.625,42.75,-29.375
582.0,-100520.66666666667,-3385.3333333333335,-1041.3333333333333,2057.6666666666665,-58.666666666666664,42.666666666666664,-29.333333333333332
584.0,-100455.58333333333,-3352.791666666667,-1106.4166666666665,2058.0833333333335,-58.708333333333336,42.583333333333336,-29.291666666666668
586.0,-100390.5,-3320.25,-1171.5,2058.5,-58.75,42.5,-29.25
588.0,-100325.41666666667,-3287.7083333333335,-1236.5833333333333,2058.9166666666665,-58.791666666666664,42.416666666666664,-29.208333333333332
590.0,-100260.33333333333,-3255.166666666667,-1301.6666666666665,2059.3333333333335,-58.833333333333336,42.333333333333336,-29.166666666666668
592.0,-100195.25,-3222.625,-1366.75,2059.75,-58.875,42.25,-29.125
594.0,-100130.16666666667,-3190.0833333333335,-1431.8333333333333,2060.1666666666665,-58.916666666666664,42.166666666666664,-29.083333333333332
596.0,-100065.08333333333,-3157.541666666667,-1496.9166666666665,2060.5833333333335,-58.958333333333336,42.083333333333336,-29.041666666666668
598.0,-100032.54166666666,-3141.2708333333335,-1529.4583333333333,2060.791666666667,-58.97916666666667,42.04166666666667,-29.020833333333336
600.0,-100000.0,-3125.0,-1562.0,2061.0,-59.0,42.0,-29.0
602.0,-100000.0,-3157.5416666666665,-1594.5416666666667,2060.5833333333335,-59.083333333333336,41.833333333333336,-28.958333333333332
604.0,-100000.0,-3190.0833333333335,-1627.0833333333333,2060.1666666666665,-59.166666666666664,41.666666666666664,-28.916666666666668
606.0,-100000.0,-3222.625,-1659.625,2059.75,-59.25,41.5,-28.875
608.0,-100000.0,-3255.1666666666665,-1692.1666666666667,2059.3333333333335,-59.333333333333336,41.333333333333336,-28.833333333333332
610.0,-100000.0,-3287.7083333333335,-1724.7083333333333,2058.9166666666665,-59.416666666666664,41.166666666666664,-28.791666666666668
612.0,-100000.0,-3320.25,-1757.25,2058.5,-59.5,41.0,-28.75
614.0,-100000.0,-3352.7916666666665,-1789.7916666666667,2058.0833333333335,-59.583333333333336,40.833333333333336,-28.708333333333332
616.0,-100000.0,-3385.3333333333335,-1822.3333333333333,2057.6666666666665,-59.666666666666664,40.666666666666664,-28.666666666666668
618.0,-100000.0,-3417.875,-1854.875,2057.25,-59.75,40.5,-28.625
620.0,-100000.0,-3450.4166666666665,-1887.4166666666665,2056.8333333333335,-59.833333333333336,40.333333333333336,-28.583333333333332
622.0,-100000.0,-3482.9583333333335,-1919.9583333333333,2056.4166666666665,-59.916666666666664,40.166666666666664,-28.541666666666668
624.0,-100000.0,-3515.5,-1952.5,2056.0,-60.0,40.0,-28.5
626.0,-100000.0,-3548.0416666666665,-1985.0416666666665,2055.5833333333335,-60.083333333333336,39.833333333333336,-28.458333333333332
628.0,-100000.0,-3580.5833333333335,-2017.5833333333333,2055.1666666666665,-60.166666666666664,39.666666666666664,-28.416666666666668
630.0,-100000.0,-3613.125,-2050.125,2054.75,-60.25,39.5,-28.375
632.0,-100000.0,-3645.6666666666665,-2082.6666666666665,2054.3333333333335,-60.333333333333336,39.333333333333336,-28.333333333333332
634.0,-100000.0,-3678.208333333333,-2115.208333333333,2053.9166666666665,-60.416666666666664,39.166666666666664,-28.291666666666668
636.0,-100000.0,-3710.75,-2147.75,2053.5,-60.5,39.0,-28.25
638.0,-100000.0,-3743.2916666666665,-2180.2916666666665,2053.0833333333335,-60.583333333333336,38.833333333333336,-28.208333333333332
640.0,-100000.0,-3775.833333333333,-2212.833333333333,2052.6666666666665,-60.666666666666664,38.666666666666664,-28.166666666666668
642.0,-100000.0,-3808.375,-2245.375,2052.25,-60.75,38.5,-28.125
644.0,-100000.0,-3840.9166666666665,-2277.9166666666665,2051.8333333333335,-60.833333333333336,38.333333333333336,-28.083333333333332
646.0,-100000.0,-3873.458333333333,-2310.458333333333,2051.4166666666665,-60.916666666666664,38.166666666666664,-28.041666666666668
648.0,-100000.0,-3889.7291666666665,-2326.7291666666665,2051.208333333333,-60.95833333333333,38.08333333333333,-28.020833333333336
650.0,-100000.0,-3906.0,-2343.0,2051.0,-61.0,38.0,-28.0
652.0,-100032.54166666667,-3840.875,-2310.4583333333335,2051.0416666666665,-61.0,38.041666666666664,-27.958333333333332
654.0,-100065.08333333333,-3775.75,-2277.9166666666665,2051.0833333333335,-61.0,38.083333333333336,-27.916666666666668
656.0,-100097.625,-3710.625,-2245.375,2051.125,-61.0,38.125,-27.875
658.0,-100130.16666666667,-3645.5,-2212.8333333333335,2051.1666666666665,-61.0,38.166666666666664,-27.833333333333332
660.0,-100162.70833333333,-3580.375,-2180.2916666666665,2051.2083333333335,-61.0,38.208333333333336,-27.791666666666668
662.0,-100195.25,-3515.25,-2147.75,2051.25,-61.0,38.25,-27.75
664.0,-100227.79166666667,-3450.125,-2115.2083333333335,2051.2916666666665,-61.0,38.291666666666664,-27.708333333333332
666.0,-100260.33333333333,-3385.0,-2082.6666666666665,2051.3333333333335,-61.0,38.333333333333336,-27.666666666666668
668.0,-100292.875,-3319.875,-2050.125,2051.375,-61.0,38.375,-27.625
670.0,-100325.41666666667,-3254.75,-2017.5833333333335,2051.4166666666665,-61.0,38.416666666666664,-27.583333333333332
672.0,-100357.95833333333,-3189.625,-1985.0416666666667,2051.4583333333335,-61.0,38.458333333333336,-27.541666666666668
674.0,-100390.5,-3124.5,-1952.5,2051.5,-61.0,38.5,-27.5
676.0,-100423.04166666667,-3059.375,-1919.9583333333335,2051.5416666666665,-61.0,38.541666666666664,-27.458333333333332
678.0,-100455.58333333333,-2994.25,-1887.4166666666667,2051.5833333333335,-61.0,38.583333333333336,-27.416666666666668
680.0,-100488.125,-2929.125,-1854.875,2051.625,-61.0,38.625,-27.375
682.0,-100520.66666666667,-2864.0,-1822.3333333333335,2051.6666666666665,-61.0,38.666666666666664,-27.333333333333332
684.0,-100553.20833333333,-2798.875,-1789.7916666666667,2051.7083333333335,-61.0,38.708333333333336,-27.291666666666668
686.0,-100585.75,-2733.75,-1757.25,2051.75,-61.0,38.75,-27.25
688.0,-100618.29166666667,-2668.625,-1724.7083333333335,2051.7916666666665,-61.0,38.791666666666664,-27.208333333333332
690.0,-100650.83333333333,-2603.5,-1692.1666666666667,2051.8333333333335,-61.0,38.833333333333336,-27.166666666666668
692.0,-100683.375,-2538.375,-1659.625,2051.875,-61.0,38.875,-27.125
694.0,-100715.91666666667,-2473.25,-1627.0833333333335,2051.9166666666665,-61.0,38.916666666666664,-27.083333333333332
696.0,-100748.45833333333,-2408.125,-1594.5416666666667,2051.9583333333335,-61.0,38.958333333333336,-27.041666666666668
698.0,-100764.72916666666,-2375.5625,-1578.2708333333335,2051.979166666667,-61.0,38.97916666666667,-27.020833333333336
700.0,-100781.0,-2343.0,-1562.0,2052.0,-61.0,39.0,-27.0
702.0,-100781.0,-2408.125,-1529.4583333333333,2052.25,-61.125,38.958333333333336,-26.958333333333332
704.0,-100781.0,-2473.25,-1496.9166666666667,2052.5,-61.25,38.916666666666664,-26.916666666666668
706.0,-100781.0,-2538.375,-1464.375,2052.75,-61.375,38.875,-26.875
708.0,-100781.0,-2603.5,-1431.8333333333333,2053.0,-61.5,38.833333333333336,-26.833333333333332
710.0,-100781.0,-2668.625,-1399.2916666666667,2053.25,-61.625,38.791666666666664,-26.791666666666668
712.0,-100781.0,-2733.75,-1366.75,2053.5,-61.75,38.75,-26.75
714.0,-100781.0,-2798.875,-1334.2083333333333,2053.75,-61.875,38.708333333333336,-26.708333333333332
716.0,-100781.0,-2864.0,-1301.6666666666667,2054.0,-62.0,38.666666666666664,-26.666666666666668
718.0,-100781.0,-2929.125,-1269.125,2054.25,-62.125,38.625,-26.625
720.0,-100781.0,-2994.25,-1236.5833333333335,2054.5,-62.25,38.583333333333336,-26.583333333333332
722.0,-100781.0,-3059.375,-1204.0416666666667,2054.75,-62.375,38.541666666666664,-26.541666666666668
724.0,-100781.0,-3124.5,-1171.5,2055.0,-62.5,38.5,-26.5
726.0,-100781.0,-3189.625,-1138.9583333333335,2055.25,-62.625,38.458333333333336,-26.458333333333332
728.0,-100781.0,-3254.75,-1106.4166666666667,2055.5,-62.75,38.416666666666664,-26.416666666666668
730.0,-100781.0,-3319.875,-1073.875,2055.75,-62.875,38.375,-26.375
732.0,-100781.0,-3385.0,-1041.3333333333335,2056.0,-63.0,38.333333333333336,-26.333333333333332
734.0,-100781.0,-3450.125,-1008.7916666666667,2056.25,-63.125,38.291666666666664,-26.291666666666668
736.0,-100781.0,-3515.25,-976.25,2056.5,-63.25,38.25,-26.25
738.0,-100781.0,-3580.375,-943.7083333333334,2056.75,-63.375,38.208333333333336,-26.208333333333332
740.0,-100781.0,-3645.5,-911.1666666666667,2057.0,-63.5,38.166666666666664,-26.166666666666668
742.0,-100781.0,-3710.625,-878.625,2057.25,-63.625,38.125,-26.125
744.0,-100781.0,-3775.75,-846.0833333333334,2057.5,-63.75,38.083333333333336,-26.083333333333332
746.0,-100781.0,-3840.875,-813.5416666666667,2057.75,-63.875,38.041666666666664,-26.041666666666668
748.0,-100781.0,-3873.4375,-797.2708333333334,2057.875,-63.9375,38.02083333333333,-26.020833333333336
750.0,-100781.0,-3906.0,-781.0,2058.0,-64.0,38.0,-26.0
752.0,-100781.0,-3873.4583333333335,-781.0,2057.7916666666665,-64.04166666666667,38.0,-25.958333333333332
754.0,-100781.0,-3840.9166666666665,-781.0,2057.5833333333335,-64.08333333333333,38.0,-25.916666666666668
756.0,-100781.0,-3808.375,-781.0,2057.375,-64.125,38.0,-25.875
758.0,-100781.0,-3775.8333333333335,-781.0,2057.1666666666665,-64.16666666666667,38.0,-25.833333333333332
760.0,-100781.0,-3743.2916666666665,-781.0,2056.9583333333335,-64.20833333333333,38.0,-25.791666666666668
762.0,-100781.0,-3710.75,-781.0,2056.75,-64.25,38.0,-25.75
764.0,-100781.0,-3678.2083333333335,-781.0,2056.5416666666665,-64.29166666666667,38.0,-25.708333333333332
766.0,-100781.0,-3645.6666666666665,-781.0,2056.3333333333335,-64.33333333333333,38.0,-25.666666666666668
768.0,-100781.0,-3613.125,-781.0,2056.125,-64.375,38.0,-25.625
770.0,-100781.0,-3580.5833333333335,-781.0,2055.9166666666665,-64.41666666666667,38.0,-25.583333333333332
772.0,-100781.0,-3548.0416666666665,-781.0,2055.7083333333335,-64.45833333333333,38.0,-25.541666666666668
774.0,-100781.0,-3515.5,-781.0,2055.5,-64.5,38.0,-25.5
776.0,-100781.0,-3482.9583333333335,-781.0,2055.2916666666665,-64.54166666666667,38.0,-25.458333333333332
778.0,-100781.0,-3450.4166666666665,-781.0,2055.0833333333335,-64.58333333333333,38.0,-25.416666666666668
780.0,-100781.0,-3417.875,-781.0,2054.875,-64.625,38.0,-25.375
782.0,-100781.0,-3385.3333333333335,-781.0,2054.6666666666665,-64.66666666666667,38.0,-25.333333333333332
784.0,-100781.0,-3352.791666666667,-781.0,2054.4583333333335,-64.70833333333333,38.0,-25.291666666666668
786.0,-100781.0,-3320.25,-781.0,2054.25,-64.75,38.0,-25.25
788.0,-100781.0,-3287.7083333333335,-781.0,2054.0416666666665,-64.79166666666667,38.0,-25.208333333333332
790.0,-100781.0,-3255.166666666667,-781.0,2053.8333333333335,-64.83333333333333,38.0,-25.166666666666668
792.0,-100781.0,-3222.625,-781.0,2053.625,-64.875,38.0,-25.125
794.0,-100781.0,-3190.0833333333335,-781.0,2053.4166666666665,-64.91666666666667,38.0,-25.083333333333332
796.0,-100781.0,-3157.541666666667,-781.0,2053.2083333333335,-64.95833333333333,38.0,-25.041666666666668
798.0,-100781.0,-3141.2708333333335,-781.0,2053.104166666667,-64.97916666666666,38.0,-25.020833333333336
800.0,-100781.0,-3125.0,-781.0,2053.0,-65.0,38.0,-25.0
802.0,-100748.45833333333,-3157.5416666666665,-748.4583333333334,2052.7916666666665,-65.0,38.083333333333336,-24.958333333333332
804.0,-100715.91666666667,-3190.0833333333335,-715.9166666666666,2052.5833333333335,-65.0,38.166666666666664,-24.916666666666668
806.0,-100683.375,-3222.625,-683.375,2052.375,-65.0,38.25,-24.875
808.0,-100650.83333333333,-3255.1666666666665,-650.8333333333334,2052.1666666666665,-65.0,38.333333333333336,-24.833333333333332
810.0,-100618.29166666667,-3287.7083333333335,-618.2916666666667,2051.9583333333335,-65.0,38.416666666666664,-24.791666666666668
812.0,-100585.75,-3320.25,-585.75,2051.75,-65.0,38.5,-24.75
814.0,-100553.20833333333,-3352.7916666666665,-553.2083333333334,2051.5416666666665,-65.0,38.583333333333336,-24.708333333333332
816.0,-100520.66666666667,-3385.3333333333335,-520.6666666666667,2051.3333333333335,-65.0,38.666666666666664,-24.666666666666668
818.0,-100488.125,-3417.875,-488.125,2051.125,-65.0,38.75,-24.625
820.0,-100455.58333333333,-3450.4166666666665,-455.58333333333337,2050.9166666666665,-65.0,38.833333333333336,-24.583333333333332
822.0,-100423.04166666667,-3482.9583333333335,-423.0416666666667,2050.7083333333335,-65.0,38.916666666666664,-24.541666666666668
824.0,-100390.5,-3515.5,-390.5,2050.5,-65.0,39.0,-24.5
826.0,-100357.95833333333,-3548.0416666666665,-357.95833333333337,2050.2916666666665,-65.0,39.083333333333336,-24.458333333333332
828.0,-100325.41666666667,-3580.5833333333335,-325.4166666666667,2050.0833333333335,-65.0,39.166666666666664,-24.416666666666668
830.0,-100292.875,-3613.125,-292.87500000000006,2049.875,-65.0,39.25,-24.375
832.0,-100260.33333333333,-3645.6666666666665,-260.33333333333337,2049.6666666666665,-65.0,39.333333333333336,-24.333333333333332
834.0,-100227.79166666667,-3678.208333333333,-227.79166666666674,2049.4583333333335,-65.0,39.416666666666664,-24.291666666666668
836.0,-100195.25,-3710.75,-195.25,2049.25,-65.0,39.5,-24.25
838.0,-100162.70833333333,-3743.2916666666665,-162.70833333333337,2049.0416666666665,-65.0,39.583333333333336,-24.208333333333332
840.0,-100130.16666666667,-3775.833333333333,-130.16666666666674,2048.8333333333335,-65.0,39.666666666666664,-24.166666666666668
842.0,-100097.625,-3808.375,-97.625,2048.625,-65.0,39.75,-24.125
844.0,-100065.08333333333,-3840.9166666666665,-65.08333333333337,2048.4166666666665,-65.0,39.833333333333336,-24.083333333333332
846.0,-100032.54166666667,-3873.458333333333,-32.54166666666674,2048.2083333333335,-65.0,39.916666666666664,-24.041666666666668
848.0,-100016.27083333334,-3889.7291666666665,-16.27083333333337,2048.104166666667,-65.0,39.95833333333333,-24.020833333333336
850.0,-100000.0,-3906.0,0.0,2048.0,-65.0,40.0,-24.0
852.0,-99967.41666666667,-4003.6666666666665,0.0,2048.125,-64.95833333333333,40.0,-23.958333333333332
854.0,-99934.83333333333,-4101.333333333333,0.0,2048.25,-64.91666666666667,40.0,-23.916666666666668
856.0,-99902.25,-4199.0,0.0,2048.375,-64.875,40.0,-23.875
858.0,-99869.66666666667,-4296.666666666667,0.0,2048.5,-64.83333333333333,40.0,-23.833333333333332
860.0,-99837.08333333333,-4394.333333333333,0.0,2048.625,-64.79166666666667,40.0,-23.791666666666668
862.0,-99804.5,-4492.0,0.0,2048.75,-64.75,40.0,-23.75
864.0,-99771.91666666667,-4589.666666666667,0.0,2048.875,-64.70833333333333,40.0,-23.708333333333332
866.0,-99739.33333333333,-4687.333333333333,0.0,2049.0,-64.66666666666667,40.0,-23.666666666666668
868.0,-99706.75,-4785.0,0.0,2049.125,-64.625,40.0,-23.625
870.0,-99674.16666666667,-4882.666666666667,0.0,2049.25,-64.58333333333333,40.0,-23.583333333333332
872.0,-99641.58333333333,-4980.333333333334,0.0,2049.375,-64.54166666666667,40.0,-23.541666666666668
874.0,-99609.0,-5078.0,0.0,2049.5,-64.5,40.0,-23.5
876.0,-99576.41666666667,-5175.666666666667,0.0,2049.625,-64.45833333333333,40.0,-23.458333333333332
878.0,-99543.83333333333,-5273.333333333334,0.0,2049.75,-64.41666666666667,40.0,-23.416666666666668
880.0,-99511.25,-5371.0,0.0,2049.875,-64.375,40.0,-23.375
882.0,-99478.66666666667,-5468.666666666667,0.0,2050.0,-64.33333333333333,40.0,-23.333333333333332
884.0,-99446.08333333333,-5566.333333333334,0.0,2050.125,-64.29166666666667,40.0,-23.291666666666668
886.0,-99413.5,-5664.0,0.0,2050.25,-64.25,40.0,-23.25
888.0,-99380.91666666667,-5761.666666666667,0.0,2050.375,-64.20833333333333,40.0,-23.208333333333332
890.0,-99348.33333333333,-5859.333333333334,0.0,2050.5,-64.16666666666667,40.0,-23.166666666666668
892.0,-99315.75,-5957.0,0.0,2050.625,-64.125,40.0,-23.125
894.0,-99283.16666666667,-6054.666666666667,0.0,2050.75,-64.08333333333333,40.0,-23.083333333333332
896.0,-99250.58333333333,-6152.333333333334,0.0,2050.875,-64.04166666666667,40.0,-23.041666666666668
898.0,-99234.29166666666,-6201.166666666667,0.0,2050.9375,-64.02083333333334,40.0,-23.020833333333336
900.0,-99218.0,-6250.0,0.0,2051.0,-64.0,40.0,-23.0
902.0,-99218.0,-6250.0,32.541666666666664,2051.25,-63.916666666666664,40.0,-23.041666666666668
904.0,-99218.0,-6250.0,65.08333333333333,2051.5,-63.833333333333336,40.0,-23.083333333333332
906.0,-99218.0,-6250.0,97.625,2051.75,-63.75,40.0,-23.125
908.0,-99218.0,-6250.0,130.16666666666666,2052.0,-63.666666666666664,40.0,-23.166666666666668
910.0,-99218.0,-6250.0,162.70833333333331,2052.25,-63.583333333333336,40.0,-23.208333333333332
912.0,-99218.0,-6250.0,195.25,2052.5,-63.5,40.0,-23.25
914.0,-99218.0,-6250.0,227.79166666666666,2052.75,-63.416666666666664,40.0,-23.291666666666668
916.0,-99218.0,-6250.0,260.3333333333333,2053.0,-63.333333333333336,40.0,-23.333333333333332
918.0,-99218.0,-6250.0,292.875,2053.25,-63.25,40.0,-23.375
920.0,-99218.0,-6250.0,325.41666666666663,2053.5,-63.166666666666664,40.0,-23.416666666666668
922.0,-99218.0,-6250.0,357.9583333333333,2053.75,-63.083333333333336,40.0,-23.458333333333332
924.0,-99218.0,-6250.0,390.5,2054.0,-63.0,40.0,-23.5
926.0,-99218.0,-6250.0,423.04166666666663,2054.25,-62.916666666666664,40.0,-23.541666666666668
928.0,-99218.0,-6250.0,455.5833333333333,2054.5,-62.833333333333336,40.0,-23.583333333333332
930.0,-99218.0,-6250.0,488.12499999999994,2054.75,-62.75,40.0,-23.625
932.0,-99218.0,-6250.0,520.6666666666666,2055.0,-62.666666666666664,40.0,-23.666666666666668
934.0,-99218.0,-6250.0,553.2083333333333,2055.25,-62.583333333333336,40.0,-23.708333333333332
936.0,-99218.0,-6250.0,585.75,2055.5,-62.5,40.0,-23.75
938.0,-99218.0,-6250.0,618.2916666666666,2055.75,-62.416666666666664,40.0,-23.791666666666668
940.0,-99218.0,-6250.0,650.8333333333333,2056.0,-62.333333333333336,40.0,-23.833333333333332
942.0,-99218.0,-6250.0,683.375,2056.25,-62.25,40.0,-23.875
944.0,-99218.0,-6250.0,715.9166666666666,2056.5,-62.166666666666664,40.0,-23.916666666666668
946.0,-99218.0,-6250.0,748.4583333333333,2056.75,-62.083333333333336,40.0,-23.958333333333332
948.0,-99218.0,-6250.0,764.7291666666666,2056.875,-62.04166666666667,40.0,-23.979166666666664
950.0,-99218.0,-6250.0,781.0,2057.0,-62.0,40.0,-24.0
952.0,-99250.58333333333,-6184.875,715.9166666666666,2057.1666666666665,-61.958333333333336,40.083333333333336,-24.0
954.0,-99283.16666666667,-6119.75,650.8333333333334,2057.3333333333335,-61.916666666666664,40.166666666666664,-24.0
956.0,-99315.75,-6054.625,585.75,2057.5,-61.875,40.25,-24.0
958.0,-99348.33333333333,-5989.5,520.6666666666667,2057.6666666666665,-61.833333333333336,40.333333333333336,-24.0
960.0,-99380.91666666667,-5924.375,455.58333333333337,2057.8333333333335,-61.791666666666664,40.416666666666664,-24.0
962.0,-99413.5,-5859.25,390.5,2058.0,-61.75,40.5,-24.0
964.0,-99446.08333333333,-5794.125,325.4166666666667,2058.1666666666665,-61.708333333333336,40.583333333333336,-24.0
966.0,-99478.66666666667,-5729.0,260.33333333333337,2058.3333333333335,-61.666666666666664,40.666666666666664,-24.0
968.0,-99511.25,-5663.875,195.25,2058.5,-61.625,40.75,-24.0
970.0,-99543.83333333333,-5598.75,130.16666666666674,2058.6666666666665,-61.583333333333336,40.833333333333336,-24.0
972.0,-99576.41666666667,-5533.625,65.08333333333337,2058.8333333333335,-61.541666666666664,40.916666666666664,-24.0
974.0,-99609.0,-5468.5,0.0,2059.0,-61.5,41.0,-24.0
976.0,-99641.58333333333,-5403.375,-65.08333333333326,2059.1666666666665,-61.458333333333336,41.083333333333336,-24.0
978.0,-99674.16666666667,-5338.25,-130.16666666666663,2059.3333333333335,-61.416666666666664,41.166666666666664,-24.0
980.0,-99706.75,-5273.125,-195.2499999999999,2059.5,-61.375,41.25,-24.0
982.0,-99739.33333333333,-5208.0,-260.33333333333326,2059.6666666666665,-61.333333333333336,41.333333333333336,-24.0
984.0,-99771.91666666667,-5142.875,-325.4166666666665,2059.8333333333335,-61.291666666666664,41.416666666666664,-24.0
986.0,-99804.5,-5077.75,-390.5,2060.0,-61.25,41.5,-24.0
988.0,-99837.08333333333,-5012.625,-455.58333333333326,2060.1666666666665,-61.208333333333336,41.583333333333336,-24.0
990.0,-99869.66666666667,-4947.5,-520.6666666666665,2060.3333333333335,-61.166666666666664,41.666666666666664,-24.0
992.0,-99902.25,-4882.375,-585.75,2060.5,-61.125,41.75,-24.0
994.0,-99934.83333333333,-4817.25,-650.8333333333333,2060.6666666666665,-61.083333333333336,41.833333333333336,-24.0
996.0,-99967.41666666667,-4752.125,-715.9166666666665,2060.8333333333335,-61.041666666666664,41.916666666666664,-24.0
998.0,-99983.70833333334,-4719.5625,-748.4583333333333,2060.916666666667,-61.02083333333333,41.95833333333333,-24.0
1000.0,-100000.0,-4687.0,-781.0,2061.0,-61.0,42.0,-24.0
1002.0,-100000.0,-4719.541666666667,-813.5416666666666,2060.5833333333335,-61.041666666666664,41.916666666666664,-23.958333333333332
1004.0,-100000.0,-4752.083333333333,-846.0833333333334,2060.1666666666665,-61.083333333333336,41.833333333333336,-23.916666666666668
1006.0,-100000.0,-4784.625,-878.625,2059.75,-61.125,41.75,-23.875
1008.0,-100000.0,-4817.166666666667,-911.1666666666666,2059.3333333333335,-61.166666666666664,41.666666666666664,-23.833333333333332
1010.0,-100000.0,-4849.708333333333,-943.7083333333333,2058.9166666666665,-61.208333333333336,41.583333333333336,-23.791666666666668
1012.0,-100000.0,-4882.25,-976.25,2058.5,-61.25,41.5,-23.75
1014.0,-100000.0,-4914.791666666667,-1008.7916666666666,2058.0833333333335,-61.291666666666664,41.416666666666664,-23.708333333333332
1016.0,-100000.0,-4947.333333333333,-1041.3333333333333,2057.6666666666665,-61.333333333333336,41.333333333333336,-23.666666666666668
1018.0,-100000.0,-4979.875,-1073.875,2057.25,-61.375,41.25,-23.625
1020.0,-100000.0,-5012.416666666667,-1106.4166666666665,2056.8333333333335,-61.416666666666664,41.166666666666664,-23.583333333333332
1022.0,-100000.0,-5044.958333333333,-1138.9583333333333,2056.4166666666665,-61.458333333333336,41.083333333333336,-23.541666666666668
1024.0,-100000.0,-5077.5,-1171.5,2056.0,-61.5,41.0,-23.5
1026.0,-100000.0,-5110.041666666667,-1204.0416666666665,2055.5833333333335,-61.541666666666664,40.916666666666664,-23.458333333333332
1028.0,-100000.0,-5142.583333333333,-1236.5833333333333,2055.1666666666665,-61.583333333333336,40.833333333333336,-23.416666666666668
1030.0,-100000.0,-5175.125,-1269.125,2054.75,-61.625,40.75,-23.375
1032.0,-100000.0,-5207.666666666667,-1301.6666666666665,2054.3333333333335,-61.666666666666664,40.666666666666664,-23.333333333333332
1034.0,-100000.0,-5240.208333333333,-1334.2083333333333,2053.9166666666665,-61.708333333333336,40.583333333333336,-23.291666666666668
1036.0,-100000.0,-5272.75,-1366.75,2053.5,-61.75,40.5,-23.25
1038.0,-100000.0,-5305.291666666667,-1399.2916666666665,2053.0833333333335,-61.791666666666664,40.416666666666664,-23.208333333333332
1040.0,-100000.0,-5337.833333333333,-1431.8333333333333,2052.6666666666665,-61.833333333333336,40.333333333333336,-23.166666666666668
1042.0,-100000.0,-5370.375,-1464.375,2052.25,-61.875,40.25,-23.125
1044.0,-100000.0,-5402.916666666667,-1496.9166666666665,2051.8333333333335,-61.916666666666664,40.166666666666664,-23.083333333333332
1046.0,-100000.0,-5435.458333333333,-1529.4583333333333,2051.4166666666665,-61.958333333333336,40.083333333333336,-23.041666666666668
1048.0,-100000.0,-5451.729166666666,-1545.7291666666665,2051.208333333333,-61.97916666666667,40.04166666666667,-23.020833333333336
1050.0,-100000.0,-5468.0,-1562.0,2051.0,-62.0,40.0,-23.0
1052.0,-100032.54166666667,-5402.916666666667,-1594.5416666666667,2050.875,-62.041666666666664,39.916666666666664,-23.041666666666668
1054.0,-100065.08333333333,-5337.833333333333,-1627.0833333333333,2050.75,-62.083333333333336,39.833333333333336,-23.083333333333332
1056.0,-100097.625,-5272.75,-1659.625,2050.625,-62.125,39.75,-23.125
1058.0,-100130.16666666667,-5207.666666666667,-1692.1666666666667,2050.5,-62.166666666666664,39.666666666666664,-23.166666666666668
1060.0,-100162.70833333333,-5142.583333333333,-1724.7083333333333,2050.375,-62.208333333333336,39.583333333333336,-23.208333333333332
1062.0,-100195.25,-5077.5,-1757.25,2050.25,-62.25,39.5,-23.25
1064.0,-100227.79166666667,-5012.416666666667,-1789.7916666666667,2050.125,-62.291666666666664,39.416666666666664,-23.291666666666668
1066.0,-100260.33333333333,-4947.333333333333,-1822.3333333333333,2050.0,-62.333333333333336,39.333333333333336,-23.333333333333332
1068.0,-100292.875,-4882.25,-1854.875,2049.875,-62.375,39.25,-23.375
1070.0,-100325.41666666667,-4817.166666666667,-1887.4166666666665,2049.75,-62.416666666666664,39.166666666666664,-23.416666666666668
1072.0,-100357.95833333333,-4752.083333333333,-1919.9583333333333,2049.625,-62.458333333333336,39.083333333333336,-23.458333333333332
1074.0,-100390.5,-4687.0,-1952.5,2049.5,-62.5,39.0,-23.5
1076.0,-100423.04166666667,-4621.916666666667,-1985.0416666666665,2049.375,-62.541666666666664,38.916666666666664,-23.541666666666668
1078.0,-100455.58333333333,-4556.833333333333,-2017.5833333333333,2049.25,-62.583333333333336,38.833333333333336,-23.583333333333332
1080.0,-100488.125,-4491.75,-2050.125,2049.125,-62.625,38.75,-23.625
1082.0,-100520.66666666667,-4426.666666666667,-2082.6666666666665,2049.0,-62.666666666666664,38.666666666666664,-23.666666666666668
1084.0,-100553.20833333333,-4361.583333333334,-2115.208333333333,2048.875,-62.708333333333336,38.583333333333336,-23.708333333333332
1086.0,-100585.75,-4296.5,-2147.75,2048.75,-62.75,38.5,-23.75
1088.0,-100618.29166666667,-4231.416666666667,-2180.2916666666665,2048.625,-62.791666666666664,38.416666666666664,-23.791666666666668
1090.0,-100650.83333333333,-4166.333333333334,-2212.833333333333,2048.5,-62.833333333333336,38.333333333333336,-23.833333333333332
1092.0,-100683.375,-4101.25,-2245.375,2048.375,-62.875,38.25,-23.875
1094.0,-100715.91666666667,-4036.166666666667,-2277.9166666666665,2048.25,-62.916666666666664,38.166666666666664,-23.916666666666668
1096.0,-100748.45833333333,-3971.0833333333335,-2310.458333333333,2048.125,-62.958333333333336,38.083333333333336,-23.958333333333332
1098.0,-100764.72916666666,-3938.541666666667,-2326.7291666666665,2048.0625,-62.97916666666667,38.04166666666667,-23.979166666666664
1100.0,-100781.0,-3906.0,-2343.0,2048.0,-63.0,38.0,-24.0
1102.0,-100781.0,-3938.5416666666665,-2310.4583333333335,2048.1666666666665,-63.041666666666664,37.916666666666664,-23.958333333333332
1104.0,-100781.0,-3971.0833333333335,-2277.9166666666665,2048.3333333333335,-63.083333333333336,37.833333333333336,-23.916666666666668
1106.0,-100781.0,-4003.625,-2245.375,2048.5,-63.125,37.75,-23.875
1108.0,-100781.0,-4036.1666666666665,-2212.8333333333335,2048.6666666666665,-63.166666666666664,37.666666666666664,-23.833333333333332
1110.0,-100781.0,-4068.7083333333335,-2180.2916666666665,2048.8333333333335,-63.208333333333336,37.583333333333336,-23.791666666666668
1112.0,-100781.0,-4101.25,-2147.75,2049.0,-63.25,37.5,-23.75
1114.0,-100781.0,-4133.791666666667,-2115.2083333333335,2049.1666666666665,-63.291666666666664,37.416666666666664,-23.708333333333332
1116.0,-100781.0,-4166.333333333333,-2082.6666666666665,2049.3333333333335,-63.333333333333336,37.333333333333336,-23.666666666666668
1118.0,-100781.0,-4198.875,-2050.125,2049.5,-63.375,37.25,-23.625
1120.0,-100781.0,-4231.416666666667,-2017.5833333333335,2049.6666666666665,-63.416666666666664,37.166666666666664,-23.583333333333332
1122.0,-100781.0,-4263.958333333333,-1985.0416666666667,2049.8333333333335,-63.458333333333336,37.083333333333336,-23.541666666666668
1124.0,-100781.0,-4296.5,-1952.5,2050.0,-63.5,37.0,-23.5
1126.0,-100781.0,-4329.041666666667,-1919.9583333333335,2050.1666666666665,-63.541666666666664,36.916666666666664,-23.458333333333332
1128.0,-100781.0,-4361.583333333333,-1887.4166666666667,2050.3333333333335,-63.583333333333336,36.833333333333336,-23.416666666666668
1130.0,-100781.0,-4394.125,-1854.875,2050.5,-63.625,36.75,-23.375
1132.0,-100781.0,-4426.666666666667,-1822.3333333333335,2050.6666666666665,-63.666666666666664,36.666666666666664,-23.333333333333332
1134.0,-100781.0,-4459.208333333333,-1789.7916666666667,2050.8333333333335,-63.708333333333336,36.583333333333336,-23.291666666666668
1136.0,-100781.0,-4491.75,-1757.25,2051.0,-63.75,36.5,-23.25
1138.0,-100781.0,-4524.291666666667,-1724.7083333333335,2051.1666666666665,-63.791666666666664,36.416666666666664,-23.208333333333332
1140.0,-100781.0,-4556.833333333333,-1692.1666666666667,2051.3333333333335,-63.833333333333336,36.333333333333336,-23.166666666666668
1142.0,-100781.0,-4589.375,-1659.625,2051.5,-63.875,36.25,-23.125
1144.0,-100781.0,-4621.916666666667,-1627.0833333333335,2051.6666666666665,-63.916666666666664,36.166666666666664,-23.083333333333332
1146.0,-100781.0,-4654.458333333333,-1594.5416666666667,2051.8333333333335,-63.958333333333336,36.083333333333336,-23.041666666666668
1148.0,-100781.0,-4670.729166666666,-1578.2708333333335,2051.916666666667,-63.97916666666667,36.04166666666667,-23.020833333333336
1150.0,-100781.0,-4687.0,-1562.0,2052.0,-64.0,36.0,-23.0
1152.0,-100748.45833333333,-4719.541666666667,-1562.0,2051.875,-64.04166666666667,35.916666666666664,-23.0
1154.0,-100715.91666666667,-4752.083333333333,-1562.0,2051.75,-64.08333333333333,35.833333333333336,-23.0
1156.0,-100683.375,-4784.625,-1562.0,2051.625,-64.125,35.75,-23.0
1158.0,-100650.83333333333,-4817.166666666667,-1562.0,2051.5,-64.16666666666667,35.666666666666664,-23.0
1160.0,-100618.29166666667,-4849.708333333333,-1562.0,2051.375,-64.20833333333333,35.583333333333336,-23.0
1162.0,-100585.75,-4882.25,-1562.0,2051.25,-64.25,35.5,-23.0
1164.0,-100553.20833333333,-4914.791666666667,-1562.0,2051.125,-64.29166666666667,35.416666666666664,-23.0
1166.0,-100520.66666666667,-4947.333333333333,-1562.0,2051.0,-64.33333333333333,35.333333333333336,-23.0
1168.0,-100488.125,-4979.875,-1562.0,2050.875,-64.375,35.25,-23.0
1170.0,-100455.58333333333,-5012.416666666667,-1562.0,2050.75,-64.41666666666667,35.166666666666664,-23.0
1172.0,-100423.04166666667,-5044.958333333333,-1562.0,2050.625,-64.45833333333333,35.083333333333336,-23.0
1174.0,-100390.5,-5077.5,-1562.0,2050.5,-64.5,35.0,-23.0
1176.0,-100357.95833333333,-5110.041666666667,-1562.0,2050.375,-64.54166666666667,34.916666666666664,-23.0
1178.0,-100325.41666666667,-5142.583333333333,-1562.0,2050.25,-64.58333333333333,34.833333333333336,-23.0
1180.0,-100292.875,-5175.125,-1562.0,2050.125,-64.625,34.75,-23.0
1182.0,-100260.33333333333,-5207.666666666667,-1562.0,2050.0,-64.66666666666667,34.666666666666664,-23.0
1184.0,-100227.79166666667,-5240.208333333333,-1562.0,2049.875,-64.70833333333333,34.583333333333336,-23.0
1186.0,-100195.25,-5272.75,-1562.0,2049.75,-64.75,34.5,-23.0
1188.0,-100162.70833333333,-5305.291666666667,-1562.0,2049.625,-64.79166666666667,34.416666666666664,-23.0
1190.0,-100130.16666666667,-5337.833333333333,-1562.0,2049.5,-64.83333333333333,34.333333333333336,-23.0
1192.0,-100097.625,-5370.375,-1562.0,2049.375,-64.875,34.25,-23.0
1194.0,-100065.08333333333,-5402.916666666667,-1562.0,2049.25,-64.91666666666667,34.166666666666664,-23.0
1196.0,-100032.54166666667,-5435.458333333333,-1562.0,2049.125,-64.95833333333333,34.083333333333336,-23.0
1198.0,-100016.27083333334,-5451.729166666666,-1562.0,2049.0625,-64.97916666666666,34.04166666666667,-23.0
1200.0,-100000.0,-5468.0,-1562.0,2049.0,-65.0,34.0,-23.0
1202.0,-99967.41666666667,-5468.0,-1529.4583333333333,2049.3333333333335,-65.0,34.0,-23.041666666666668
1204.0,-99934.83333333333,-5468.0,-1496.9166666666667,2049.6666666666665,-65.0,34.0,-23.083333333333332
1206.0,-99902.25,-5468.0,-1464.375,2050.0,-65.0,34.0,-23.125
1208.0,-99869.66666666667,-5468.0,-1431.8333333333333,2050.3333333333335,-65.0,34.0,-23.166666666666668
1210.0,-99837.08333333333,-5468.0,-1399.2916666666667,2050.6666666666665,-65.0,34.0,-23.208333333333332
1212.0,-99804.5,-5468.0,-1366.75,2051.0,-65.0,34.0,-23.25
1214.0,-99771.91666666667,-5468.0,-1334.2083333333333,2051.3333333333335,-65.0,34.0,-23.291666666666668
1216.0,-99739.33333333333,-5468.0,-1301.6666666666667,2051.6666666666665,-65.0,34.0,-23.333333333333332
1218.0,-99706.75,-5468.0,-1269.125,2052.0,-65.0,34.0,-23.375
1220.0,-99674.16666666667,-5468.0,-1236.5833333333335,2052.3333333333335,-65.0,34.0,-23.416666666666668
1222.0,-99641.58333333333,-5468.0,-1204.0416666666667,2052.6666666666665,-65.0,34.0,-23.458333333333332
1224.0,-99609.0,-5468.0,-1171.5,2053.0,-65.0,34.0,-23.5
1226.0,-99576.41666666667,-5468.0,-1138.9583333333335,2053.3333333333335,-65.0,34.0,-23.541666666666668
1228.0,-99543.83333333333,-5468.0,-1106.4166666666667,2053.6666666666665,-65.0,34.0,-23.583333333333332
1230.0,-99511.25,-5468.0,-1073.875,2054.0,-65.0,34.0,-23.625
1232.0,-99478.66666666667,-5468.0,-1041.3333333333335,2054.3333333333335,-65.0,34.0,-23.666666666666668
1234.0,-99446.08333333333,-5468.0,-1008.7916666666667,2054.6666666666665,-65.0,34.0,-23.708333333333332
1236.0,-99413.5,-5468.0,-976.25,2055.0,-65.0,34.0,-23.75
1238.0,-99380.91666666667,-5468.0,-943.7083333333334,2055.3333333333335,-65.0,34.0,-23.791666666666668
1240.0,-99348.33333333333,-5468.0,-911.1666666666667,2055.6666666666665,-65.0,34.0,-23.833333333333332
1242.0,-99315.75,-5468.0,-878.625,2056.0,-65.0,34.0,-23.875
1244.0,-99283.16666666667,-5468.0,-846.0833333333334,2056.3333333333335,-65.0,34.0,-23.916666666666668
1246.0,-99250.58333333333,-5468.0,-813.5416666666667,2056.6666666666665,-65.0,34.0,-23.958333333333332
1248.0,-99234.29166666666,-5468.0,-797.2708333333334,2056.833333333333,-65.0,34.0,-23.979166666666664
1250.0,-99218.0,-5468.0,-781.0,2057.0,-65.0,34.0,-24.0
1252.0,-99250.58333333333,-5533.125,-781.0,2056.6666666666665,-64.95833333333333,33.958333333333336,-24.083333333333332
1254.0,-99283.16666666667,-5598.25,-781.0,2056.3333333333335,-64.91666666666667,33.916666666666664,-24.166666666666668
1256.0,-99315.75,-5663.375,-781.0,2056.0,-64.875,33.875,-24.25
1258.0,-99348.33333333333,-5728.5,-781.0,2055.6666666666665,-64.83333333333333,33.833333333333336,-24.333333333333332
1260.0,-99380.91666666667,-5793.625,-781.0,2055.3333333333335,-64.79166666666667,33.791666666666664,-24.416666666666668
1262.0,-99413.5,-5858.75,-781.0,2055.0,-64.75,33.75,-24.5
1264.0,-99446.08333333333,-5923.875,-781.0,2054.6666666666665,-64.70833333333333,33.708333333333336,-24.583333333333332
1266.0,-99478.66666666667,-5989.0,-781.0,2054.3333333333335,-64.66666666666667,33.666666666666664,-24.666666666666668
1268.0,-99511.25,-6054.125,-781.0,2054.0,-64.625,33.625,-24.75
1270.0,-99543.83333333333,-6119.25,-781.0,2053.6666666666665,-64.58333333333333,33.583333333333336,-24.833333333333332
1272.0,-99576.41666666667,-6184.375,-781.0,2053.3333333333335,-64.54166666666667,33.541666666666664,-24.916666666666668
1274.0,-99609.0,-6249.5,-781.0,2053.0,-64.5,33.5,-25.0
1276.0,-99641.58333333333,-6314.625,-781.0,2052.6666666666665,-64.45833333333333,33.458333333333336,-25.083333333333332
1278.0,-99674.16666666667,-6379.75,-781.0,2052.3333333333335,-64.41666666666667,33.416666666666664,-25.166666666666668
1280.0,-99706.75,-6444.875,-781.0,2052.0,-64.375,33.375,-25.25
1282.0,-99739.33333333333,-6510.0,-781.0,2051.6666666666665,-64.33333333333333,33.333333333333336,-25.333333333333332
1284.0,-99771.91666666667,-6575.125,-781.0,2051.3333333333335,-64.29166666666667,33.291666666666664,-25.416666666666668
1286.0,-99804.5,-6640.25,-781.0,2051.0,-64.25,33.25,-25.5
1288.0,-99837.08333333333,-6705.375,-781.0,2050.6666666666665,-64.20833333333333,33.208333333333336,-25.583333333333332
1290.0,-99869.66666666667,-6770.5,-781.0,2050.3333333333335,-64.16666666666667,33.166666666666664,-25.666666666666668
1292.0,-99902.25,-6835.625,-781.0,2050.0,-64.125,33.125,-25.75
1294.0,-99934.83333333333,-6900.75,-781.0,2049.6666666666665,-64.08333333333333,33.083333333333336,-25.833333333333332
1296.0,-99967.41666666667,-6965.875,-781.0,2049.3333333333335,-64.04166666666667,33.041666666666664,-25.916666666666668
1298.0,-99983.70833333334,-6998.4375,-781.0,2049.166666666667,-64.02083333333334,33.02083333333333,-25.958333333333336
1300.0,-100000.0,-7031.0,-781.0,2049.0,-64.0,33.0,-26.0
1302.0,-100000.0,-6965.875,-748.4583333333334,2049.0833333333335,-63.958333333333336,32.958333333333336,-26.041666666666668
1304.0,-100000.0,-6900.75,-715.9166666666666,2049.1666666666665,-63.916666666666664,32.916666666666664,-26.083333333333332
1306.0,-100000.0,-6835.625,-683.375,2049.25,-63.875,32.875,-26.125
1308.0,-100000.0,-6770.5,-650.8333333333334,2049.3333333333335,-63.833333333333336,32.833333333333336,-26.166666666666668
1310.0,-100000.0,-6705.375,-618.2916666666667,2049.4166666666665,-63.791666666666664,32.791666666666664,-26.208333333333332
1312.0,-100000.0,-6640.25,-585.75,2049.5,-63.75,32.75,-26.25
1314.0,-100000.0,-6575.125,-553.2083333333334,2049.5833333333335,-63.708333333333336,32.708333333333336,-26.291666666666668
1316.0,-100000.0,-6510.0,-520.6666666666667,2049.6666666666665,-63.666666666666664,32.666666666666664,-26.333333333333332
1318.0,-100000.0,-6444.875,-488.125,2049.75,-63.625,32.625,-26.375
1320.0,-100000.0,-6379.75,-455.58333333333337,2049.8333333333335,-63.583333333333336,32.583333333333336,-26.416666666666668
1322.0,-100000.0,-6314.625,-423.0416666666667,2049.9166666666665,-63.541666666666664,32.541666666666664,-26.458333333333332
1324.0,-100000.0,-6249.5,-390.5,2050.0,-63.5,32.5,-26.5
1326.0,-100000.0,-6184.375,-357.95833333333337,2050.0833333333335,-63.458333333333336,32.458333333333336,-26.541666666666668
1328.0,-100000.0,-6119.25,-325.4166666666667,2050.1666666666665,-63.416666666666664,32.416666666666664,-26.583333333333332
1330.0,-100000.0,-6054.125,-292.87500000000006,2050.25,-63.375,32.375,-26.625
1332.0,-100000.0,-5989.0,-260.33333333333337,2050.3333333333335,-63.333333333333336,32.333333333333336,-26.666666666666668
1334.0,-100000.0,-5923.875,-227.79166666666674,2050.4166666666665,-63.291666666666664,32.291666666666664,-26.708333333333332
1336.0,-100000.0,-5858.75,-195.25,2050.5,-63.25,32.25,-26.75
1338.0,-100000.0,-5793.625,-162.70833333333337,2050.5833333333335,-63.208333333333336,32.208333333333336,-26.791666666666668
1340.0,-100000.0,-5728.5,-130.16666666666674,2050.6666666666665,-63.166666666666664,32.166666666666664,-26.833333333333332
1342.0,-100000.0,-5663.375,-97.625,2050.75,-63.125,32.125,-26.875
1344.0,-100000.0,-5598.25,-65.08333333333337,2050.8333333333335,-63.083333333333336,32.083333333333336,-26.916666666666668
1346.0,-100000.0,-5533.125,-32.54166666666674,2050.9166666666665,-63.041666666666664,32.041666666666664,-26.958333333333332
1348.0,-100000.0,-5500.5625,-16.27083333333337,2050.958333333333,-63.02083333333333,32.02083333333333,-26.979166666666664
1350.0,-100000.0,-5468.0,0.0,2051.0,-63.0,32.0,-27.0
1352.0,-99967.41666666667,-5500.583333333333,0.0,2051.25,-62.916666666666664,31.958333333333332,-27.0
1354.0,-99934.83333333333,-5533.166666666667,0.0,2051.5,-62.833333333333336,31.916666666666668,-27.0
1356.0,-99902.25,-5565.75,0.0,2051.75,-62.75,31.875,-27.0
1358.0,-99869.66666666667,-5598.333333333333,0.0,2052.0,-62.666666666666664,31.833333333333332,-27.0
1360.0,-99837.08333333333,-5630.916666666667,0.0,2052.25,-62.583333333333336,31.791666666666668,-27.0
1362.0,-99804.5,-5663.5,0.0,2052.5,-62.5,31.75,-27.0
1364.0,-99771.91666666667,-5696.083333333333,0.0,2052.75,-62.416666666666664,31.708333333333332,-27.0
1366.0,-99739.33333333333,-5728.666666666667,0.0,2053.0,-62.333333333333336,31.666666666666668,-27.0
1368.0,-99706.75,-5761.25,0.0,2053.25,-62.25,31.625,-27.0
1370.0,-99674.16666666667,-5793.833333333333,0.0,2053.5,-62.166666666666664,31.583333333333332,-27.0
1372.0,-99641.58333333333,-5826.416666666667,0.0,2053.75,-62.083333333333336,31.541666666666668,-27.0
1374.0,-99609.0,-5859.0,0.0,2054.0,-62.0,31.5,-27.0
1376.0,-99576.41666666667,-5891.583333333333,0.0,2054.25,-61.916666666666664,31.458333333333332,-27.0
1378.0,-99543.83333333333,-5924.166666666667,0.0,2054.5,-61.833333333333336,31.416666666666668,-27.0
1380.0,-99511.25,-5956.75,0.0,2054.75,-61.75,31.375,-27.0
1382.0,-99478.66666666667,-5989.333333333333,0.0,2055.0,-61.666666666666664,31.333333333333332,-27.0
1384.0,-99446.08333333333,-6021.916666666667,0.0,2055.25,-61.583333333333336,31.291666666666668,-27.0
1386.0,-99413.5,-6054.5,0.0,2055.5,-61.5,31.25,-27.0
1388.0,-99380.91666666667,-6087.083333333333,0.0,2055.75,-61.416666666666664,31.208333333333332,-27.0
1390.0,-99348.33333333333,-6119.666666666667,0.0,2056.0,-61.333333333333336,31.166666666666668,-27.0
1392.0,-99315.75,-6152.25,0.0,2056.25,-61.25,31.125,-27.0
1394.0,-99283.16666666667,-6184.833333333333,0.0,2056.5,-61.166666666666664,31.083333333333332,-27.0
1396.0,-99250.58333333333,-6217.416666666667,0.0,2056.75,-61.083333333333336,31.041666666666668,-27.0
1398.0,-99234.29166666666,-6233.708333333334,0.0,2056.875,-61.04166666666667,31.020833333333336,-27.0
1400.0,-99218.0,-6250.0,0.0,2057.0,-61.0,31.0,-27.0
1402.0,-99218.0,-6217.416666666667,32.541666666666664,2056.375,-60.958333333333336,30.958333333333332,-27.0
1404.0,-99218.0,-6184.833333333333,65.08333333333333,2055.75,-60.916666666666664,30.916666666666668,-27.0
1406.0,-99218.0,-6152.25,97.625,2055.125,-60.875,30.875,-27.0
1408.0,-99218.0,-6119.666666666667,130.16666666666666,2054.5,-60.833333333333336,30.833333333333332,-27.0
1410.0,-99218.0,-6087.083333333333,162.70833333333331,2053.875,-60.791666666666664,30.791666666666668,-27.0
1412.0,-99218.0,-6054.5,195.25,2053.25,-60.75,30.75,-27.0
1414.0,-99218.0,-6021.916666666667,227.79166666666666,2052.625,-60.708333333333336,30.708333333333332,-27.0
1416.0,-99218.0,-5989.333333333333,260.3333333333333,2052.0,-60.666666666666664,30.666666666666668,-27.0
1418.0,-99218.0,-5956.75,292.875,2051.375,-60.625,30.625,-27.0
1420.0,-99218.0,-5924.166666666667,325.41666666666663,2050.75,-60.583333333333336,30.583333333333332,-27.0
1422.0,-99218.0,-5891.583333333333,357.9583333333333,2050.125,-60.541666666666664,30.541666666666668,-27.0
1424.0,-99218.0,-5859.0,390.5,2049.5,-60.5,30.5,-27.0
1426.0,-99218.0,-5826.416666666667,423.04166666666663,2048.875,-60.458333333333336,30.458333333333332,-27.0
1428.0,-99218.0,-5793.833333333333,455.5833333333333,2048.25,-60.416666666666664,30.416666666666668,-27.0
1430.0,-99218.0,-5761.25,488.12499999999994,2047.625,-60.375,30.375,-27.0
1432.0,-99218.0,-5728.666666666667,520.6666666666666,2047.0,-60.333333333333336,30.333333333333332,-27.0
1434.0,-99218.0,-5696.083333333333,553.2083333333333,2046.375,-60.291666666666664,30.291666666666668,-27.0
1436.0,-99218.0,-5663.5,585.75,2045.75,-60.25,30.25,-27.0
1438.0,-99218.0,-5630.916666666667,618.2916666666666,2045.125,-60.208333333333336,30.208333333333332,-27.0
1440.0,-99218.0,-5598.333333333333,650.8333333333333,2044.5,-60.166666666666664,30.166666666666668,-27.0
1442.0,-99218.0,-5565.75,683.375,2043.875,-60.125,30.125,-27.0
1444.0,-99218.0,-5533.166666666667,715.9166666666666,2043.25,-60.083333333333336,30.083333333333332,-27.0
1446.0,-99218.0,-5500.583333333333,748.4583333333333,2042.625,-60.041666666666664,30.041666666666668,-27.0
1448.0,-99218.0,-5484.291666666666,764.7291666666666,2042.3125,-60.02083333333333,30.020833333333336,-27.0
1450.0,-99218.0,-5468.0,781.0,2042.0,-60.0,30.0,-27.0
1452.0,-99152.91666666667,-5533.125,781.0,2042.375,-59.833333333333336,30.166666666666668,-27.041666666666668
1454.0,-99087.83333333333,-5598.25,781.0,2042.75,-59.666666666666664,30.333333333333332,-27.083333333333332
1456.0,-99022.75,-5663.375,781.0,2043.125,-59.5,30.5,-27.125
1458.0,-98957.66666666667,-5728.5,781.0,2043.5,-59.333333333333336,30.666666666666668,-27.166666666666668
1460.0,-98892.58333333333,-5793.625,781.0,2043.875,-59.166666666666664,30.833333333333332,-27.208333333333332
1462.0,-98827.5,-5858.75,781.0,2044.25,-59.0,31.0,-27.25
1464.0,-98762.41666666667,-5923.875,781.0,2044.625,-58.833333333333336,31.166666666666668,-27.291666666666668
1466.0,-98697.33333333333,-5989.0,781.0,2045.0,-58.666666666666664,31.333333333333332,-27.333333333333332
1468.0,-98632.25,-6054.125,781.0,2045.375,-58.5,31.5,-27.375
1470.0,-98567.16666666667,-6119.25,781.0,2045.75,-58.333333333333336,31.666666666666668,-27.416666666666668
1472.0,-98502.08333333333,-6184.375,781.0,2046.125,-58.166666666666664,31.833333333333332,-27.458333333333332
1474.0,-98437.0,-6249.5,781.0,2046.5,-58.0,32.0,-27.5
1476.0,-98371.91666666667,-6314.625,781.0,2046.875,-57.833333333333336,32.166666666666664,-27.541666666666668
1478.0,-98306.83333333333,-6379.75,781.0,2047.25,-57.666666666666664,32.333333333333336,-27.583333333333332
1480.0,-98241.75,-6444.875,781.0,2047.625,-57.5,32.5,-27.625
1482.0,-98176.66666666667,-6510.0,781.0,2048.0,-57.333333333333336,32.666666666666664,-27.666666666666668
1484.0,-98111.58333333333,-6575.125,781.0,2048.375,-57.166666666666664,32.833333333333336,-27.708333333333332
1486.0,-98046.5,-6640.25,781.0,2048.75,-57.0,33.0,-27.75
1488.0,-97981.41666666667,-6705.375,781.0,2049.125,-56.833333333333336,33.166666666666664,-27.791666666666668
1490.0,-97916.33333333333,-6770.5,781.0,2049.5,-56.666666666666664,33.333333333333336,-27.833333333333332
1492.0,-97851.25,-6835.625,781.0,2049.875,-56.5,33.5,-27.875
1494.0,-97786.16666666667,-6900.75,781.0,2050.25,-56.333333333333336,33.666666666666664,-27.916666666666668
1496.0,-97721.08333333333,-6965.875,781.0,2050.625,-56.166666666666664,33.833333333333336,-27.958333333333332
1498.0,-97688.54166666666,-6998.4375,781.0,2050.8125,-56.08333333333333,33.91666666666667,-27.979166666666664
1500.0,-97656.0,-7031.0,781.0,2051.0,-56.0,34.0,-28.0
1502.0,-97688.54166666667,-6998.458333333333,781.0,2050.6666666666665,-55.833333333333336,34.125,-28.0
1504.0,-97721.08333333333,-6965.916666666667,781.0,2050.3333333333335,-55.666666666666664,34.25,-28.0
1506.0,-97753.625,-6933.375,781.0,2050.0,-55.5,34.375,-28.0
1508.0,-97786.16666666667,-6900.833333333333,781.0,2049.6666666666665,-55.333333333333336,34.5,-28.0
1510.0,-97818.70833333333,-6868.291666666667,781.0,2049.3333333333335,-55.166666666666664,34.625,-28.0
1512.0,-97851.25,-6835.75,781.0,2049.0,-55.0,34.75,-28.0
1514.0,-97883.79166666667,-6803.208333333333,781.0,2048.6666666666665,-54.833333333333336,34.875,-28.0
1516.0,-97916.33333333333,-6770.666666666667,781.0,2048.3333333333335,-54.666666666666664,35.0,-28.0
1518.0,-97948.875,-6738.125,781.0,2048.0,-54.5,35.125,-28.0
1520.0,-97981.41666666667,-6705.583333333333,781.0,2047.6666666666667,-54.333333333333336,35.25,-28.0
1522.0,-98013.95833333333,-6673.041666666667,781.0,2047.3333333333333,-54.166666666666664,35.375,-28.0
1524.0,-98046.5,-6640.5,781.0,2047.0,-54.0,35.5,-28.0
1526.0,-98079.04166666667,-6607.958333333333,781.0,2046.6666666666667,-53.833333333333336,35.625,-28.0
1528.0,-98111.58333333333,-6575.416666666667,781.0,2046.3333333333333,-53.666666666666664,35.75,-28.0
1530.0,-98144.125,-6542.875,781.0,2046.0,-53.5,35.875,-28.0
1532.0,-98176.66666666667,-6510.333333333333,781.0,2045.6666666666667,-53.333333333333336,36.0,-28.0
1534.0,-98209.20833333333,-6477.791666666667,781.0,2045.3333333333333,-53.166666666666664,36.125,-28.0
1536.0,-98241.75,-6445.25,781.0,2045.0,-53.0,36.25,-28.0
1538.0,-98274.29166666667,-6412.708333333333,781.0,2044.6666666666667,-52.833333333333336,36.375,-28.0
1540.0,-98306.83333333333,-6380.166666666667,781.0,2044.3333333333333,-52.666666666666664,36.5,-28.0
1542.0,-98339.375,-6347.625,781.0,2044.0,-52.5,36.625,-28.0
1544.0,-98371.91666666667,-6315.083333333333,781.0,2043.6666666666667,-52.333333333333336,36.75,-28.0
1546.0,-98404.45833333333,-6282.541666666667,781.0,2043.3333333333333,-52.166666666666664,36.875,-28.0
1548.0,-98420.72916666666,-6266.270833333334,781.0,2043.1666666666665,-52.08333333333333,36.9375,-28.0
1550.0,-98437.0,-6250.0,781.0,2043.0,-52.0,37.0,-28.0
1552.0,-98437.0,-6250.0,878.6666666666666,2043.625,-51.791666666666664,37.166666666666664,-28.0
1554.0,-98437.0,-6250.0,976.3333333333334,2044.25,-51.583333333333336,37.333333333333336,-28.0
1556.0,-98437.0,-6250.0,1074.0,2044.875,-51.375,37.5,-28.0
1558.0,-98437.0,-6250.0,1171.6666666666667,2045.5,-51.166666666666664,37.666666666666664,-28.0
1560.0,-98437.0,-6250.0,1269.3333333333335,2046.125,-50.958333333333336,37.833333333333336,-28.0
1562.0,-98437.0,-6250.0,1367.0,2046.75,-50.75,38.0,-28.0
1564.0,-98437.0,-6250.0,1464.6666666666667,2047.375,-50.541666666666664,38.166666666666664,-28.0
1566.0,-98437.0,-6250.0,1562.3333333333335,2048.0,-50.333333333333336,38.333333333333336,-28.0
1568.0,-98437.0,-6250.0,1660.0,2048.625,-50.125,38.5,-28.0
1570.0,-98437.0,-6250.0,1757.6666666666667,2049.25,-49.916666666666664,38.666666666666664,-28.0
1572.0,-98437.0,-6250.0,1855.3333333333335,2049.875,-49.708333333333336,38.833333333333336,-28.0
1574.0,-98437.0,-6250.0,1953.0,2050.5,-49.5,39.0,-28.0
1576.0,-98437.0,-6250.0,2050.666666666667,2051.125,-49.291666666666664,39.166666666666664,-28.0
1578.0,-98437.0,-6250.0,2148.3333333333335,2051.75,-49.083333333333336,39.333333333333336,-28.0
1580.0,-98437.0,-6250.0,2246.0,2052.375,-48.875,39.5,-28.0
1582.0,-98437.0,-6250.0,2343.666666666667,2053.0,-48.666666666666664,39.666666666666664,-28.0
1584.0,-98437.0,-6250.0,2441.3333333333335,2053.625,-48.458333333333336,39.833333333333336,-28.0
1586.0,-98437.0,-6250.0,2539.0,2054.25,-48.25,40.0,-28.0
1588.0,-98437.0,-6250.0,2636.666666666667,2054.875,-48.041666666666664,40.166666666666664,-28.0
1590.0,-98437.0,-6250.0,2734.3333333333335,2055.5,-47.833333333333336,40.333333333333336,-28.0
1592.0,-98437.0,-6250.0,2832.0,2056.125,-47.625,40.5,-28.0
1594.0,-98437.0,-6250.0,2929.666666666667,2056.75,-47.416666666666664,40.666666666666664,-28.0
1596.0,-98437.0,-6250.0,3027.3333333333335,2057.375,-47.208333333333336,40.833333333333336,-28.0
1598.0,-98437.0,-6250.0,3076.166666666667,2057.6875,-47.10416666666667,40.91666666666667,-28.0
1600.0,-98437.0,-6250.0,3125.0,2058.0,-47.0,41.0,-28.0
1602.0,-98437.0,-6250.0,3059.875,2057.5833333333335,-46.791666666666664,41.166666666666664,-28.041666666666668
1604.0,-98437.0,-6250.0,2994.75,2057.1666666666665,-46.583333333333336,41.333333333333336,-28.083333333333332
1606.0,-98437.0,-6250.0,2929.625,2056.75,-46.375,41.5,-28.125
1608.0,-98437.0,-6250.0,2864.5,2056.3333333333335,-46.166666666666664,41.666666666666664,-28.166666666666668
1610.0,-98437.0,-6250.0,2799.375,2055.9166666666665,-45.958333333333336,41.833333333333336,-28.208333333333332
1612.0,-98437.0,-6250.0,2734.25,2055.5,-45.75,42.0,-28.25
1614.0,-98437.0,-6250.0,2669.125,2055.0833333333335,-45.541666666666664,42.166666666666664,-28.291666666666668
1616.0,-98437.0,-6250.0,2604.0,2054.6666666666665,-45.333333333333336,42.333333333333336,-28.333333333333332
1618.0,-98437.0,-6250.0,2538.875,2054.25,-45.125,42.5,-28.375
1620.0,-98437.0,-6250.0,2473.75,2053.8333333333335,-44.916666666666664,42.666666666666664,-28.416666666666668
1622.0,-98437.0,-6250.0,2408.625,2053.4166666666665,-44.708333333333336,42.833333333333336,-28.458333333333332
1624.0,-98437.0,-6250.0,2343.5,2053.0,-44.5,43.0,-28.5
1626.0,-98437.0,-6250.0,2278.375,2052.5833333333335,-44.291666666666664,43.166666666666664,-28.541666666666668
1628.0,-98437.0,-6250.0,2213.25,2052.1666666666665,-44.083333333333336,43.333333333333336,-28.583333333333332
1630.0,-98437.0,-6250.0,2148.125,2051.75,-43.875,43.5,-28.625
1632.0,-98437.0,-6250.0,2083.0,2051.3333333333335,-43.666666666666664,43.666666666666664,-28.666666666666668
1634.0,-98437.0,-6250.0,2017.875,2050.9166666666665,-43.458333333333336,43.833333333333336,-28.708333333333332
1636.0,-98437.0,-6250.0,1952.75,2050.5,-43.25,44.0,-28.75
1638.0,-98437.0,-6250.0,1887.625,2050.0833333333335,-43.041666666666664,44.166666666666664,-28.791666666666668
1640.0,-98437.0,-6250.0,1822.5,2049.6666666666665,-42.833333333333336,44.333333333333336,-28.833333333333332
1642.0,-98437.0,-6250.0,1757.375,2049.25,-42.625,44.5,-28.875
1644.0,-98437.0,-6250.0,1692.25,2048.8333333333335,-42.416666666666664,44.666666666666664,-28.916666666666668
1646.0,-98437.0,-6250.0,1627.125,2048.4166666666665,-42.208333333333336,44.833333333333336,-28.958333333333332
1648.0,-98437.0,-6250.0,1594.5625,2048.208333333333,-42.10416666666667,44.91666666666667,-28.979166666666664
1650.0,-98437.0,-6250.0,1562.0,2048.0,-42.0,45.0,-29.0
1652.0,-98437.0,-6315.083333333333,1529.4583333333333,2048.125,-41.875,45.083333333333336,-29.0
1654.0,-98437.0,-6380.166666666667,1496.9166666666667,2048.25,-41.75,45.166666666666664,-29.0
1656.0,-98437.0,-6445.25,1464.375,2048.375,-41.625,45.25,-29.0
1658.0,-98437.0,-6510.333333333333,1431.8333333333333,2048.5,-41.5,45.333333333333336,-29.0
1660.0,-98437.0,-6575.416666666667,1399.2916666666667,2048.625,-41.375,45.416666666666664,-29.0
1662.0,-98437.0,-6640.5,1366.75,2048.75,-41.25,45.5,-29.0
1664.0,-98437.0,-6705.583333333333,1334.2083333333333,2048.875,-41.125,45.583333333333336,-29.0
1666.0,-98437.0,-6770.666666666667,1301.6666666666667,2049.0,-41.0,45.666666666666664,-29.0
1668.0,-98437.0,-6835.75,1269.125,2049.125,-40.875,45.75,-29.0
1670.0,-98437.0,-6900.833333333333,1236.5833333333335,2049.25,-40.75,45.833333333333336,-29.0
1672.0,-98437.0,-6965.916666666667,1204.0416666666667,2049.375,-40.625,45.916666666666664,-29.0
1674.0,-98437.0,-7031.0,1171.5,2049.5,-40.5,46.0,-29.0
1676.0,-98437.0,-7096.083333333333,1138.9583333333335,2049.625,-40.375,46.083333333333336,-29.0
1678.0,-98437.0,-7161.166666666667,1106.4166666666667,2049.75,-40.25,46.166666666666664,-29.0
1680.0,-98437.0,-7226.25,1073.875,2049.875,-40.125,46.25,-29.0
1682.0,-98437.0,-7291.333333333333,1041.3333333333335,2050.0,-40.0,46.333333333333336,-29.0
1684.0,-98437.0,-7356.416666666666,1008.7916666666667,2050.125,-39.875,46.416666666666664,-29.0
1686.0,-98437.0,-7421.5,976.25,2050.25,-39.75,46.5,-29.0
1688.0,-98437.0,-7486.583333333333,943.7083333333334,2050.375,-39.625,46.583333333333336,-29.0
1690.0,-98437.0,-7551.666666666666,911.1666666666667,2050.5,-39.5,46.666666666666664,-29.0
1692.0,-98437.0,-7616.75,878.625,2050.625,-39.375,46.75,-29.0
1694.0,-98437.0,-7681.833333333333,846.0833333333334,2050.75,-39.25,46.833333333333336,-29.0
1696.0,-98437.0,-7746.916666666666,813.5416666666667,2050.875,-39.125,46.916666666666664,-29.0
1698.0,-98437.0,-7779.458333333333,797.2708333333334,2050.9375,-39.0625,46.95833333333333,-29.0
1700.0,-98437.0,-7812.0,781.0,2051.0,-39.0,47.0,-29.0
1702.0,-98437.0,-7779.458333333333,781.0,2051.125,-38.833333333333336,47.208333333333336,-28.958333333333332
1704.0,-98437.0,-7746.916666666667,781.0,2051.25,-38.666666666666664,47.416666666666664,-28.916666666666668
1706.0,-98437.0,-7714.375,781.0,2051.375,-38.5,47.625,-28.875
1708.0,-98437.0,-7681.833333333333,781.0,2051.5,-38.333333333333336,47.833333333333336,-28.833333333333332
1710.0,-98437.0,-7649.291666666667,781.0,2051.625,-38.166666666666664,48.041666666666664,-28.791666666666668
1712.0,-98437.0,-7616.75,781.0,2051.75,-38.0,48.25,-28.75
1714.0,-98437.0,-7584.208333333333,781.0,2051.875,-37.833333333333336,48.458333333333336,-28.708333333333332
1716.0,-98437.0,-7551.666666666667,781.0,2052.0,-37.666666666666664,48.666666666666664,-28.666666666666668
1718.0,-98437.0,-7519.125,781.0,2052.125,-37.5,48.875,-28.625
1720.0,-98437.0,-7486.583333333333,781.0,2052.25,-37.333333333333336,49.083333333333336,-28.583333333333332
1722.0,-98437.0,-7454.041666666667,781.0,2052.375,-37.166666666666664,49.291666666666664,-28.541666666666668
1724.0,-98437.0,-7421.5,781.0,2052.5,-37.0,49.5,-28.5
1726.0,-98437.0,-7388.958333333333,781.0,2052.625,-36.833333333333336,49.708333333333336,-28.458333333333332
1728.0,-98437.0,-7356.416666666667,781.0,2052.75,-36.666666666666664,49.916666666666664,-28.416666666666668
1730.0,-98437.0,-7323.875,781.0,2052.875,-36.5,50.125,-28.375
1732.0,-98437.0,-7291.333333333333,781.0,2053.0,-36.333333333333336,50.333333333333336,-28.333333333333332
1734.0,-98437.0,-7258.791666666667,781.0,2053.125,-36.166666666666664,50.541666666666664,-28.291666666666668
1736.0,-98437.0,-7226.25,781.0,2053.25,-36.0,50.75,-28.25
1738.0,-98437.0,-7193.708333333333,781.0,2053.375,-35.833333333333336,50.958333333333336,-28.208333333333332
1740.0,-98437.0,-7161.166666666667,781.0,2053.5,-35.666666666666664,51.166666666666664,-28.166666666666668
1742.0,-98437.0,-7128.625,781.0,2053.625,-35.5,51.375,-28.125
1744.0,-98437.0,-7096.083333333333,781.0,2053.75,-35.333333333333336,51.583333333333336,-28.083333333333332
1746.0,-98437.0,-7063.541666666667,781.0,2053.875,-35.166666666666664,51.791666666666664,-28.041666666666668
1748.0,-98437.0,-7047.270833333334,781.0,2053.9375,-35.08333333333333,51.89583333333333,-28.020833333333336
1750.0,-98437.0,-7031.0,781.0,2054.0,-35.0,52.0,-28.0
1752.0,-98469.54166666667,-6998.458333333333,781.0,2053.75,-34.875,52.166666666666664,-28.0
1754.0,-98502.08333333333,-6965.916666666667,781.0,2053.5,-34.75,52.333333333333336,-28.0
1756.0,-98534.625,-6933.375,781.0,2053.25,-34.625,52.5,-28.0
1758.0,-98567.16666666667,-6900.833333333333,781.0,2053.0,-34.5,52.666666666666664,-28.0
1760.0,-98599.70833333333,-6868.291666666667,781.0,2052.75,-34.375,52.833333333333336,-28.0
1762.0,-98632.25,-6835.75,781.0,2052.5,-34.25,53.0,-28.0
1764.0,-98664.79166666667,-6803.208333333333,781.0,2052.25,-34.125,53.166666666666664,-28.0
1766.0,-98697.33333333333,-6770.666666666667,781.0,2052.0,-34.0,53.333333333333336,-28.0
1768.0,-98729.875,-6738.125,781.0,2051.75,-33.875,53.5,-28.0
1770.0,-98762.41666666667,-6705.583333333333,781.0,2051.5,-33.75,53.666666666666664,-28.0
1772.0,-98794.95833333333,-6673.041666666667,781.0,2051.25,-33.625,53.833333333333336,-28.0
1774.0,-98827.5,-6640.5,781.0,2051.0,-33.5,54.0,-28.0
1776.0,-98860.04166666667,-6607.958333333333,781.0,2050.75,-33.375,54.166666666666664,-28.0
1778.0,-98892.58333333333,-6575.416666666667,781.0,2050.5,-33.25,54.333333333333336,-28.0
1780.0,-98925.125,-6542.875,781.0,2050.25,-33.125,54.5,-28.0
1782.0,-98957.66666666667,-6510.333333333333,781.0,2050.0,-33.0,54.666666666666664,-28.0
1784.0,-98990.20833333333,-6477.791666666667,781.0,2049.75,-32.875,54.833333333333336,-28.0
1786.0,-99022.75,-6445.25,781.0,2049.5,-32.75,55.0,-28.0
1788.0,-99055.29166666667,-6412.708333333333,781.0,2049.25,-32.625,55.166666666666664,-28.0
1790.0,-99087.83333333333,-6380.166666666667,781.0,2049.0,-32.5,55.333333333333336,-28.0
1792.0,-99120.375,-6347.625,781.0,2048.75,-32.375,55.5,-28.0
1794.0,-99152.91666666667,-6315.083333333333,781.0,2048.5,-32.25,55.666666666666664,-28.0
1796.0,-99185.45833333333,-6282.541666666667,781.0,2048.25,-32.125,55.833333333333336,-28.0
1798.0,-99201.72916666666,-6266.270833333334,781.0,2048.125,-32.0625,55.91666666666667,-28.0
1800.0,-99218.0,-6250.0,781.0,2048.0,-32.0,56.0,-28.0
1802.0,-99250.58333333333,-6282.541666666667,748.4583333333334,2048.125,-31.916666666666668,56.125,-27.958333333333332
1804.0,-99283.16666666667,-6315.083333333333,715.9166666666666,2048.25,-31.833333333333332,56.25,-27.916666666666668
1806.0,-99315.75,-6347.625,683.375,2048.375,-31.75,56.375,-27.875
1808.0,-99348.33333333333,-6380.166666666667,650.8333333333334,2048.5,-31.666666666666668,56.5,-27.833333333333332
1810.0,-99380.91666666667,-6412.708333333333,618.2916666666667,2048.625,-31.583333333333332,56.625,-27.791666666666668
1812.0,-99413.5,-6445.25,585.75,2048.75,-31.5,56.75,-27.75
1814.0,-99446.08333333333,-6477.791666666667,553.2083333333334,2048.875,-31.416666666666668,56.875,-27.708333333333332
1816.0,-99478.66666666667,-6510.333333333333,520.6666666666667,2049.0,-31.333333333333332,57.0,-27.666666666666668
1818.0,-99511.25,-6542.875,488.125,2049.125,-31.25,57.125,-27.625
1820.0,-99543.83333333333,-6575.416666666667,455.58333333333337,2049.25,-31.166666666666668,57.25,-27.583333333333332
1822.0,-99576.41666666667,-6607.958333333333,423.0416666666667,2049.375,-31.083333333333332,57.375,-27.541666666666668
1824.0,-99609.0,-6640.5,390.5,2049.5,-31.0,57.5,-27.5
1826.0,-99641.58333333333,-6673.041666666667,357.95833333333337,2049.625,-30.916666666666668,57.625,-27.458333333333332
1828.0,-99674.16666666667,-6705.583333333333,325.4166666666667,2049.75,-30.833333333333332,57.75,-27.416666666666668
1830.0,-99706.75,-6738.125,292.87500000000006,2049.875,-30.75,57.875,-27.375
1832.0,-99739.33333333333,-6770.666666666667,260.33333333333337,2050.0,-30.666666666666668,58.0,-27.333333333333332
1834.0,-99771.91666666667,-6803.208333333333,227.79166666666674,2050.125,-30.583333333333332,58.125,-27.291666666666668
1836.0,-99804.5,-6835.75,195.25,2050.25,-30.5,58.25,-27.25
1838.0,-99837.08333333333,-6868.291666666667,162.70833333333337,2050.375,-30.416666666666668,58.375,-27.208333333333332
1840.0,-99869.66666666667,-6900.833333333333,130.16666666666674,2050.5,-30.333333333333332,58.5,-27.166666666666668
1842.0,-99902.25,-6933.375,97.625,2050.625,-30.25,58.625,-27.125
1844.0,-99934.83333333333,-6965.916666666667,65.08333333333337,2050.75,-30.166666666666668,58.75,-27.083333333333332
1846.0,-99967.41666666667,-6998.458333333333,32.54166666666674,2050.875,-30.083333333333332,58.875,-27.041666666666668
1848.0,-99983.70833333334,-7014.729166666666,16.27083333333337,2050.9375,-30.041666666666664,58.9375,-27.020833333333336
1850.0,-100000.0,-7031.0,0.0,2051.0,-30.0,59.0,-27.0
1852.0,-100032.54166666667,-6998.458333333333,-65.08333333333333,2051.125,-29.916666666666668,59.083333333333336,-26.958333333333332
1854.0,-100065.08333333333,-6965.916666666667,-130.16666666666666,2051.25,-29.833333333333332,59.166666666666664,-26.916666666666668
1856.0,-100097.625,-6933.375,-195.25,2051.375,-29.75,59.25,-26.875
1858.0,-100130.16666666667,-6900.833333333333,-260.3333333333333,2051.5,-29.666666666666668,59.333333333333336,-26.833333333333332
1860.0,-100162.70833333333,-6868.291666666667,-325.41666666666663,2051.625,-29.583333333333332,59.416666666666664,-26.791666666666668
1862.0,-100195.25,-6835.75,-390.5,2051.75,-29.5,59.5,-26.75
1864.0,-100227.79166666667,-6803.208333333333,-455.5833333333333,2051.875,-29.416666666666668,59.583333333333336,-26.708333333333332
1866.0,-100260.33333333333,-6770.666666666667,-520.6666666666666,2052.0,-29.333333333333332,59.666666666666664,-26.666666666666668
1868.0,-100292.875,-6738.125,-585.75,2052.125,-29.25,59.75,-26.625
1870.0,-100325.41666666667,-6705.583333333333,-650.8333333333333,2052.25,-29.166666666666668,59.833333333333336,-26.583333333333332
1872.0,-100357.95833333333,-6673.041666666667,-715.9166666666666,2052.375,-29.083333333333332,59.916666666666664,-26.541666666666668
1874.0,-100390.5,-6640.5,-781.0,2052.5,-29.0,60.0,-26.5
1876.0,-100423.04166666667,-6607.958333333333,-846.0833333333333,2052.625,-28.916666666666668,60.083333333333336,-26.458333333333332
1878.0,-100455.58333333333,-6575.416666666667,-911.1666666666666,2052.75,-28.833333333333332,60.166666666666664,-26.416666666666668
1880.0,-100488.125,-6542.875,-976.2499999999999,2052.875,-28.75,60.25,-26.375
1882.0,-100520.66666666667,-6510.333333333333,-1041.3333333333333,2053.0,-28.666666666666668,60.333333333333336,-26.333333333333332
1884.0,-100553.20833333333,-6477.791666666667,-1106.4166666666665,2053.125,-28.583333333333332,60.416666666666664,-26.291666666666668
1886.0,-100585.75,-6445.25,-1171.5,2053.25,-28.5,60.5,-26.25
1888.0,-100618.29166666667,-6412.708333333333,-1236.5833333333333,2053.375,-28.416666666666668,60.583333333333336,-26.208333333333332
1890.0,-100650.83333333333,-6380.166666666667,-1301.6666666666665,2053.5,-28.333333333333332,60.666666666666664,-26.166666666666668
1892.0,-100683.375,-6347.625,-1366.75,2053.625,-28.25,60.75,-26.125
1894.0,-100715.91666666667,-6315.083333333333,-1431.8333333333333,2053.75,-28.166666666666668,60.833333333333336,-26.083333333333332
1896.0,-100748.45833333333,-6282.541666666667,-1496.9166666666665,2053.875,-28.083333333333332,60.916666666666664,-26.041666666666668
1898.0,-100764.72916666666,-6266.270833333334,-1529.4583333333333,2053.9375,-28.041666666666664,60.95833333333333,-26.020833333333336
1900.0,-100781.0,-6250.0,-1562.0,2054.0,-28.0,61.0,-26.0
1902.0,-100813.54166666667,-6152.333333333333,-1594.5416666666667,2053.9166666666665,-28.041666666666668,61.0,-26.0
1904.0,-100846.08333333333,-6054.666666666667,-1627.0833333333333,2053.8333333333335,-28.083333333333332,61.0,-26.0
1906.0,-100878.625,-5957.0,-1659.625,2053.75,-28.125,61.0,-26.0
1908.0,-100911.16666666667,-5859.333333333333,-1692.1666666666667,2053.6666666666665,-28.166666666666668,61.0,-26.0
1910.0,-100943.70833333333,-5761.666666666667,-1724.7083333333333,2053.5833333333335,-28.208333333333332,61.0,-26.0
1912.0,-100976.25,-5664.0,-1757.25,2053.5,-28.25,61.0,-26.0
1914.0,-101008.79166666667,-5566.333333333333,-1789.7916666666667,2053.4166666666665,-28.291666666666668,61.0,-26.0
1916.0,-101041.33333333333,-5468.666666666667,-1822.3333333333333,2053.3333333333335,-28.333333333333332,61.0,-26.0
1918.0,-101073.875,-5371.0,-1854.875,2053.25,-28.375,61.0,-26.0
1920.0,-101106.41666666667,-5273.333333333333,-1887.4166666666665,2053.1666666666665,-28.416666666666668,61.0,-26.0
1922.0,-101138.95833333333,-5175.666666666666,-1919.9583333333333,2053.0833333333335,-28.458333333333332,61.0,-26.0
1924.0,-101171.5,-5078.0,-1952.5,2053.0,-28.5,61.0,-26.0
1926.0,-101204.04166666667,-4980.333333333333,-1985.0416666666665,2052.9166666666665,-28.541666666666668,61.0,-26.0
1928.0,-101236.58333333333,-4882.666666666666,-2017.5833333333333,2052.8333333333335,-28.583333333333332,61.0,-26.0
1930.0,-101269.125,-4785.0,-2050.125,2052.75,-28.625,61.0,-26.0
1932.0,-101301.66666666667,-4687.333333333333,-2082.6666666666665,2052.6666666666665,-28.666666666666668,61.0,-26.0
1934.0,-101334.20833333333,-4589.666666666666,-2115.208333333333,2052.5833333333335,-28.708333333333332,61.0,-26.0
1936.0,-101366.75,-4492.0,-2147.75,2052.5,-28.75,61.0,-26.0
1938.0,-101399.29166666667,-4394.333333333333,-2180.2916666666665,2052.4166666666665,-28.791666666666668,61.0,-26.0
1940.0,-101431.83333333333,-4296.666666666666,-2212.833333333333,2052.3333333333335,-28.833333333333332,61.0,-26.0
1942.0,-101464.375,-4199.0,-2245.375,2052.25,-28.875,61.0,-26.0
1944.0,-101496.91666666667,-4101.333333333333,-2277.9166666666665,2052.1666666666665,-28.916666666666668,61.0,-26.0
1946.0,-101529.45833333333,-4003.6666666666665,-2310.458333333333,2052.0833333333335,-28.958333333333332,61.0,-26.0
1948.0,-101545.72916666666,-3954.833333333333,-2326.7291666666665,2052.041666666667,-28.979166666666664,61.0,-26.0
1950.0,-101562.0,-3906.0,-2343.0,2052.0,-29.0,61.0,-26.0
1952.0,-101562.0,-3906.0,-2375.5833333333335,2051.7083333333335,-29.125,61.0,-26.0
1954.0,-101562.0,-3906.0,-2408.1666666666665,2051.4166666666665,-29.25,61.0,-26.0
1956.0,-101562.0,-3906.0,-2440.75,2051.125,-29.375,61.0,-26.0
1958.0,-101562.0,-3906.0,-2473.3333333333335,2050.8333333333335,-29.5,61.0,-26.0
1960.0,-101562.0,-3906.0,-2505.9166666666665,2050.5416666666665,-29.625,61.0,-26.0
1962.0,-101562.0,-3906.0,-2538.5,2050.25,-29.75,61.0,-26.0
1964.0,-101562.0,-3906.0,-2571.0833333333335,2049.9583333333335,-29.875,61.0,-26.0
1966.0,-101562.0,-3906.0,-2603.6666666666665,2049.6666666666665,-30.0,61.0,-26.0
1968.0,-101562.0,-3906.0,-2636.25,2049.375,-30.125,61.0,-26.0
1970.0,-101562.0,-3906.0,-2668.8333333333335,2049.0833333333335,-30.25,61.0,-26.0
1972.0,-101562.0,-3906.0,-2701.4166666666665,2048.7916666666665,-30.375,61.0,-26.0
1974.0,-101562.0,-3906.0,-2734.0,2048.5,-30.5,61.0,-26.0
1976.0,-101562.0,-3906.0,-2766.5833333333335,2048.2083333333335,-30.625,61.0,-26.0
1978.0,-101562.0,-3906.0,-2799.1666666666665,2047.9166666666667,-30.75,61.0,-26.0
1980.0,-101562.0,-3906.0,-2831.75,2047.625,-30.875,61.0,-26.0
1982.0,-101562.0,-3906.0,-2864.3333333333335,2047.3333333333333,-31.0,61.0,-26.0
1984.0,-101562.0,-3906.0,-2896.916666666667,2047.0416666666667,-31.125,61.0,-26.0
1986.0,-101562.0,-3906.0,-2929.5,2046.75,-31.25,61.0,-26.0
1988.0,-101562.0,-3906.0,-2962.0833333333335,2046.4583333333333,-31.375,61.0,-26.0
1990.0,-101562.0,-3906.0,-2994.666666666667,2046.1666666666667,-31.5,61.0,-26.0
1992.0,-101562.0,-3906.0,-3027.25,2045.875,-31.625,61.0,-26.0
1994.0,-101562.0,-3906.0,-3059.8333333333335,2045.5833333333333,-31.75,61.0,-26.0
1996.0,-101562.0,-3906.0,-3092.416666666667,2045.2916666666667,-31.875,61.0,-26.0
1998.0,-101562.0,-3906.0,-3108.7083333333335,2045.1458333333335,-31.9375,61.0,-26.0
2000.0,-101562.0,-3906.0,-3125.0,2045.0,-32.0,61.0,-26.0
2002.0,-101594.54166666667,-3873.4583333333335,-3157.5416666666665,2045.1666666666667,-32.208333333333336,60.833333333333336,-25.958333333333332
2004.0,-101627.08333333333,-3840.9166666666665,-3190.0833333333335,2045.3333333333333,-32.416666666666664,60.666666666666664,-25.916666666666668
2006.0,-101659.625,-3808.375,-3222.625,2045.5,-32.625,60.5,-25.875
2008.0,-101692.16666666667,-3775.8333333333335,-3255.1666666666665,2045.6666666666667,-32.833333333333336,60.333333333333336,-25.833333333333332
2010.0,-101724.70833333333,-3743.2916666666665,-3287.7083333333335,2045.8333333333333,-33.041666666666664,60.166666666666664,-25.791666666666668
2012.0,-101757.25,-3710.75,-3320.25,2046.0,-33.25,60.0,-25.75
2014.0,-101789.79166666667,-3678.2083333333335,-3352.7916666666665,2046.1666666666667,-33.458333333333336,59.833333333333336,-25.708333333333332
2016.0,-101822.33333333333,-3645.6666666666665,-3385.3333333333335,2046.3333333333333,-33.666666666666664,59.666666666666664,-25.666666666666668
2018.0,-101854.875,-3613.125,-3417.875,2046.5,-33.875,59.5,-25.625
2020.0,-101887.41666666667,-3580.5833333333335,-3450.4166666666665,2046.6666666666667,-34.083333333333336,59.333333333333336,-25.583333333333332
2022.0,-101919.95833333333,-3548.0416666666665,-3482.9583333333335,2046.8333333333333,-34.291666666666664,59.166666666666664,-25.541666666666668
2024.0,-101952.5,-3515.5,-3515.5,2047.0,-34.5,59.0,-25.5
2026.0,-101985.04166666667,-3482.9583333333335,-3548.0416666666665,2047.1666666666667,-34.708333333333336,58.833333333333336,-25.458333333333332
2028.0,-102017.58333333333,-3450.4166666666665,-3580.5833333333335,2047.3333333333333,-34.916666666666664,58.666666666666664,-25.416666666666668
2030.0,-102050.125,-3417.875,-3613.125,2047.5,-35.125,58.5,-25.375
2032.0,-102082.66666666667,-3385.3333333333335,-3645.6666666666665,2047.6666666666667,-35.333333333333336,58.333333333333336,-25.333333333333332
2034.0,-102115.20833333333,-3352.791666666667,-3678.208333333333,2047.8333333333333,-35.541666666666664,58.166666666666664,-25.291666666666668
2036.0,-102147.75,-3320.25,-3710.75,2048.0,-35.75,58.0,-25.25
2038.0,-102180.29166666667,-3287.7083333333335,-3743.2916666666665,2048.1666666666665,-35.958333333333336,57.833333333333336,-25.208333333333332
2040.0,-102212.83333333333,-3255.166666666667,-3775.833333333333,2048.3333333333335,-36.166666666666664,57.666666666666664,-25.166666666666668
2042.0,-102245.375,-3222.625,-3808.375,2048.5,-36.375,57.5,-25.125
2044.0,-102277.91666666667,-3190.0833333333335,-3840.9166666666665,2048.6666666666665,-36.583333333333336,57.333333333333336,-25.083333333333332
2046.0,-102310.45833333333,-3157.541666666667,-3873.458333333333,2048.8333333333335,-36.791666666666664,57.166666666666664,-25.041666666666668
2048.0,-102326.72916666666,-3141.2708333333335,-3889.7291666666665,2048.916666666667,-36.89583333333333,57.08333333333333,-25.020833333333336
2050.0,-102343.0,-3125.0,-3906.0,2049.0,-37.0,57.0,-25.0
2052.0,-102375.58333333333,-3125.0,-3971.0833333333335,2049.0833333333335,-37.25,56.791666666666664,-25.0
2054.0,-102408.16666666667,-3125.0,-4036.1666666666665,2049.1666666666665,-37.5,56.583333333333336,-25.0
2056.0,-102440.75,-3125.0,-4101.25,2049.25,-37.75,56.375,-25.0
2058.0,-102473.33333333333,-3125.0,-4166.333333333333,2049.3333333333335,-38.0,56.166666666666664,-25.0
2060.0,-102505.91666666667,-3125.0,-4231.416666666667,2049.4166666666665,-38.25,55.958333333333336,-25.0
2062.0,-102538.5,-3125.0,-4296.5,2049.5,-38.5,55.75,-25.0
2064.0,-102571.08333333333,-3125.0,-4361.583333333333,2049.5833333333335,-38.75,55.541666666666664,-25.0
2066.0,-102603.66666666667,-3125.0,-4426.666666666667,2049.6666666666665,-39.0,55.333333333333336,-25.0
2068.0,-102636.25,-3125.0,-4491.75,2049.75,-39.25,55.125,-25.0
2070.0,-102668.83333333333,-3125.0,-4556.833333333333,2049.8333333333335,-39.5,54.916666666666664,-25.0
2072.0,-102701.41666666667,-3125.0,-4621.916666666667,2049.9166666666665,-39.75,54.708333333333336,-25.0
2074.0,-102734.0,-3125.0,-4687.0,2050.0,-40.0,54.5,-25.0
2076.0,-102766.58333333333,-3125.0,-4752.083333333333,2050.0833333333335,-40.25,54.291666666666664,-25.0
2078.0,-102799.16666666667,-3125.0,-4817.166666666667,2050.1666666666665,-40.5,54.083333333333336,-25.0
2080.0,-102831.75,-3125.0,-4882.25,2050.25,-40.75,53.875,-25.0
2082.0,-102864.33333333333,-3125.0,-4947.333333333333,2050.3333333333335,-41.0,53.666666666666664,-25.0
2084.0,-102896.91666666667,-3125.0,-5012.416666666666,2050.4166666666665,-41.25,53.458333333333336,-25.0
2086.0,-102929.5,-3125.0,-5077.5,2050.5,-41.5,53.25,-25.0
2088.0,-102962.08333333333,-3125.0,-5142.583333333333,2050.5833333333335,-41.75,53.041666666666664,-25.0
2090.0,-102994.66666666667,-3125.0,-5207.666666666666,2050.6666666666665,-42.0,52.833333333333336,-25.0
2092.0,-103027.25,-3125.0,-5272.75,2050.75,-42.25,52.625,-25.0
2094.0,-103059.83333333333,-3125.0,-5337.833333333333,2050.8333333333335,-42.5,52.416666666666664,-25.0
2096.0,-103092.41666666667,-3125.0,-5402.916666666666,2050.9166666666665,-42.75,52.208333333333336,-25.0
2098.0,-103108.70833333334,-3125.0,-5435.458333333333,2050.958333333333,-42.875,52.10416666666667,-25.0
2100.0,-103125.0,-3125.0,-5468.0,2051.0,-43.0,52.0,-25.0
2102.0,-103125.0,-3157.5416666666665,-5402.916666666667,2051.2916666666665,-43.291666666666664,51.833333333333336,-25.0
2104.0,-103125.0,-3190.0833333333335,-5337.833333333333,2051.5833333333335,-43.583333333333336,51.666666666666664,-25.0
2106.0,-103125.0,-3222.625,-5272.75,2051.875,-43.875,51.5,-25.0
2108.0,-103125.0,-3255.1666666666665,-5207.666666666667,2052.1666666666665,-44.166666666666664,51.333333333333336,-25.0
2110.0,-103125.0,-3287.7083333333335,-5142.583333333333,2052.4583333333335,-44.458333333333336,51.166666666666664,-25.0
2112.0,-103125.0,-3320.25,-5077.5,2052.75,-44.75,51.0,-25.0
2114.0,-103125.0,-3352.7916666666665,-5012.416666666667,2053.0416666666665,-45.041666666666664,50.833333333333336,-25.0
2116.0,-103125.0,-3385.3333333333335,-4947.333333333333,2053.3333333333335,-45.333333333333336,50.666666666666664,-25.0
2118.0,-103125.0,-3417.875,-4882.25,2053.625,-45.625,50.5,-25.0
2120.0,-103125.0,-3450.4166666666665,-4817.166666666667,2053.9166666666665,-45.916666666666664,50.333333333333336,-25.0
2122.0,-103125.0,-3482.9583333333335,-4752.083333333333,2054.2083333333335,-46.208333333333336,50.166666666666664,-25.0
2124.0,-103125.0,-3515.5,-4687.0,2054.5,-46.5,50.0,-25.0
2126.0,-103125.0,-3548.0416666666665,-4621.916666666667,2054.7916666666665,-46.791666666666664,49.833333333333336,-25.0
2128.0,-103125.0,-3580.5833333333335,-4556.833333333333,2055.0833333333335,-47.083333333333336,49.666666666666664,-25.0
2130.0,-103125.0,-3613.125,-4491.75,2055.375,-47.375,49.5,-25.0
2132.0,-103125.0,-3645.6666666666665,-4426.666666666667,2055.6666666666665,-47.666666666666664,49.333333333333336,-25.0
2134.0,-103125.0,-3678.208333333333,-4361.583333333334,2055.9583333333335,-47.958333333333336,49.166666666666664,-25.0
2136.0,-103125.0,-3710.75,-4296.5,2056.25,-48.25,49.0,-25.0
2138.0,-103125.0,-3743.2916666666665,-4231.416666666667,2056.5416666666665,-48.541666666666664,48.833333333333336,-25.0
2140.0,-103125.0,-3775.833333333333,-4166.333333333334,2056.8333333333335,-48.833333333333336,48.666666666666664,-25.0
2142.0,-103125.0,-3808.375,-4101.25,2057.125,-49.125,48.5,-25.0
2144.0,-103125.0,-3840.9166666666665,-4036.166666666667,2057.4166666666665,-49.416666666666664,48.333333333333336,-25.0
2146.0,-103125.0,-3873.458333333333,-3971.0833333333335,2057.7083333333335,-49.708333333333336,48.166666666666664,-25.0
2148.0,-103125.0,-3889.7291666666665,-3938.541666666667,2057.854166666667,-49.85416666666667,48.08333333333333,-25.0
2150.0,-103125.0,-3906.0,-3906.0,2058.0,-50.0,48.0,-25.0
2152.0,-103092.41666666667,-3938.5416666666665,-3906.0,2057.5,-50.25,47.875,-24.958333333333332
2154.0,-103059.83333333333,-3971.0833333333335,-3906.0,2057.0,-50.5,47.75,-24.916666666666668
2156.0,-103027.25,-4003.625,-3906.0,2056.5,-50.75,47.625,-24.875
2158.0,-102994.66666666667,-4036.1666666666665,-3906.0,2056.0,-51.0,47.5,-24.833333333333332
2160.0,-102962.08333333333,-4068.7083333333335,-3906.0,2055.5,-51.25,47.375,-24.791666666666668
2162.0,-102929.5,-4101.25,-3906.0,2055.0,-51.5,47.25,-24.75
2164.0,-102896.91666666667,-4133.791666666667,-3906.0,2054.5,-51.75,47.125,-24.708333333333332
2166.0,-102864.33333333333,-4166.333333333333,-3906.0,2054.0,-52.0,47.0,-24.666666666666668
2168.0,-102831.75,-4198.875,-3906.0,2053.5,-52.25,46.875,-24.625
2170.0,-102799.16666666667,-4231.416666666667,-3906.0,2053.0,-52.5,46.75,-24.583333333333332
2172.0,-102766.58333333333,-4263.958333333333,-3906.0,2052.5,-52.75,46.625,-24.541666666666668
2174.0,-102734.0,-4296.5,-3906.0,2052.0,-53.0,46.5,-24.5
2176.0,-102701.41666666667,-4329.041666666667,-3906.0,2051.5,-53.25,46.375,-24.458333333333332
2178.0,-102668.83333333333,-4361.583333333333,-3906.0,2051.0,-53.5,46.25,-24.416666666666668
2180.0,-102636.25,-4394.125,-3906.0,2050.5,-53.75,46.125,-24.375
2182.0,-102603.66666666667,-4426.666666666667,-3906.0,2050.0,-54.0,46.0,-24.333333333333332
2184.0,-102571.08333333333,-4459.208333333333,-3906.0,2049.5,-54.25,45.875,-24.291666666666668
2186.0,-102538.5,-4491.75,-3906.0,2049.0,-54.5,45.75,-24.25
2188.0,-102505.91666666667,-4524.291666666667,-3906.0,2048.5,-54.75,45.625,-24.208333333333332
2190.0,-102473.33333333333,-4556.833333333333,-3906.0,2048.0,-55.0,45.5,-24.166666666666668
2192.0,-102440.75,-4589.375,-3906.0,2047.5,-55.25,45.375,-24.125
2194.0,-102408.16666666667,-4621.916666666667,-3906.0,2047.0,-55.5,45.25,-24.083333333333332
2196.0,-102375.58333333333,-4654.458333333333,-3906.0,2046.5,-55.75,45.125,-24.041666666666668
2198.0,-102359.29166666666,-4670.729166666666,-3906.0,2046.25,-55.875,45.0625,-24.020833333333336
2200.0,-102343.0,-4687.0,-3906.0,2046.0,-56.0,45.0,-24.0
2202.0,-102343.0,-4719.541666666667,-3840.875,2045.875,-56.208333333333336,44.958333333333336,-24.0
2204.0,-102343.0,-4752.083333333333,-3775.75,2045.75,-56.416666666666664,44.916666666666664,-24.0
2206.0,-102343.0,-4784.625,-3710.625,2045.625,-56.625,44.875,-24.0
2208.0,-102343.0,-4817.166666666667,-3645.5,2045.5,-56.833333333333336,44.833333333333336,-24.0
2210.0,-102343.0,-4849.708333333333,-3580.375,2045.375,-57.041666666666664,44.791666666666664,-24.0
2212.0,-102343.0,-4882.25,-3515.25,2045.25,-57.25,44.75,-24.0
2214.0,-102343.0,-4914.791666666667,-3450.125,2045.125,-57.458333333333336,44.708333333333336,-24.0
2216.0,-102343.0,-4947.333333333333,-3385.0,2045.0,-57.666666666666664,44.666666666666664,-24.0
2218.0,-102343.0,-4979.875,-3319.875,2044.875,-57.875,44.625,-24.0
2220.0,-102343.0,-5012.416666666667,-3254.75,2044.75,-58.083333333333336,44.583333333333336,-24.0
2222.0,-102343.0,-5044.958333333333,-3189.625,2044.625,-58.291666666666664,44.541666666666664,-24.0
2224.0,-102343.0,-5077.5,-3124.5,2044.5,-58.5,44.5,-24.0
2226.0,-102343.0,-5110.041666666667,-3059.375,2044.375,-58.708333333333336,44.458333333333336,-24.0
2228.0,-102343.0,-5142.583333333333,-2994.25,2044.25,-58.916666666666664,44.416666666666664,-24.0
2230.0,-102343.0,-5175.125,-2929.125,2044.125,-59.125,44.375,-24.0
2232.0,-102343.0,-5207.666666666667,-2864.0,2044.0,-59.333333333333336,44.333333333333336,-24.0
2234.0,-102343.0,-5240.208333333333,-2798.875,2043.875,-59.541666666666664,44.291666666666664,-24.0
2236.0,-102343.0,-5272.75,-2733.75,2043.75,-59.75,44.25,-24.0
2238.0,-102343.0,-5305.291666666667,-2668.625,2043.625,-59.958333333333336,44.208333333333336,-24.0
2240.0,-102343.0,-5337.833333333333,-2603.5,2043.5,-60.166666666666664,44.166666666666664,-24.0
2242.0,-102343.0,-5370.375,-2538.375,2043.375,-60.375,44.125,-24.0
2244.0,-102343.0,-5402.916666666667,-2473.25,2043.25,-60.583333333333336,44.083333333333336,-24.0
2246.0,-102343.0,-5435.458333333333,-2408.125,2043.125,-60.791666666666664,44.041666666666664,-24.0
2248.0,-102343.0,-5451.729166666666,-2375.5625,2043.0625,-60.89583333333333,44.02083333333333,-24.0
2250.0,-102343.0,-5468.0,-2343.0,2043.0,-61.0,44.0,-24.0
2252.0,-102343.0,-5435.458333333333,-2343.0,2043.3333333333333,-61.166666666666664,43.958333333333336,-24.0
2254.0,-102343.0,-5402.916666666667,-2343.0,2043.6666666666667,-61.333333333333336,43.916666666666664,-24.0
2256.0,-102343.0,-5370.375,-2343.0,2044.0,-61.5,43.875,-24.0
2258.0,-102343.0,-5337.833333333333,-2343.0,2044.3333333333333,-61.666666666666664,43.833333333333336,-24.0
2260.0,-102343.0,-5305.291666666667,-2343.0,2044.6666666666667,-61.833333333333336,43.791666666666664,-24.0
2262.0,-102343.0,-5272.75,-2343.0,2045.0,-62.0,43.75,-24.0
2264.0,-102343.0,-5240.208333333333,-2343.0,2045.3333333333333,-62.166666666666664,43.708333333333336,-24.0
2266.0,-102343.0,-5207.666666666667,-2343.0,2045.6666666666667,-62.333333333333336,43.666666666666664,-24.0
2268.0,-102343.0,-5175.125,-2343.0,2046.0,-62.5,43.625,-24.0
2270.0,-102343.0,-5142.583333333333,-2343.0,2046.3333333333333,-62.666666666666664,43.583333333333336,-24.0
2272.0,-102343.0,-5110.041666666667,-2343.0,2046.6666666666667,-62.833333333333336,43.541666666666664,-24.0
2274.0,-102343.0,-5077.5,-2343.0,2047.0,-63.0,43.5,-24.0
2276.0,-102343.0,-5044.958333333333,-2343.0,2047.3333333333333,-63.166666666666664,43.458333333333336,-24.0
2278.0,-102343.0,-5012.416666666667,-2343.0,2047.6666666666667,-63.333333333333336,43.416666666666664,-24.0
2280.0,-102343.0,-4979.875,-2343.0,2048.0,-63.5,43.375,-24.0
2282.0,-102343.0,-4947.333333333333,-2343.0,2048.3333333333335,-63.666666666666664,43.333333333333336,-24.0
2284.0,-102343.0,-4914.791666666667,-2343.0,2048.6666666666665,-63.833333333333336,43.291666666666664,-24.0
2286.0,-102343.0,-4882.25,-2343.0,2049.0,-64.0,43.25,-24.0
2288.0,-102343.0,-4849.708333333333,-2343.0,2049.3333333333335,-64.16666666666667,43.208333333333336,-24.0
2290.0,-102343.0,-4817.166666666667,-2343.0,2049.6666666666665,-64.33333333333333,43.166666666666664,-24.0
2292.0,-102343.0,-4784.625,-2343.0,2050.0,-64.5,43.125,-24.0
2294.0,-102343.0,-4752.083333333333,-2343.0,2050.3333333333335,-64.66666666666667,43.083333333333336,-24.0
2296.0,-102343.0,-4719.541666666667,-2343.0,2050.6666666666665,-64.83333333333333,43.041666666666664,-24.0
2298.0,-102343.0,-4703.270833333334,-2343.0,2050.833333333333,-64.91666666666666,43.02083333333333,-24.0
2300.0,-102343.0,-4687.0,-2343.0,2051.0,-65.0,43.0,-24.0
2302.0,-102310.45833333333,-4719.541666666667,-2310.4583333333335,2050.75,-65.20833333333333,42.958333333333336,-24.0
2304.0,-102277.91666666667,-4752.083333333333,-2277.9166666666665,2050.5,-65.41666666666667,42.916666666666664,-24.0
2306.0,-102245.375,-4784.625,-2245.375,2050.25,-65.625,42.875,-24.0
2308.0,-102212.83333333333,-4817.166666666667,-2212.8333333333335,2050.0,-65.83333333333333,42.833333333333336,-24.0
2310.0,-102180.29166666667,-4849.708333333333,-2180.2916666666665,2049.75,-66.04166666666667,42.791666666666664,-24.0
2312.0,-102147.75,-4882.25,-2147.75,2049.5,-66.25,42.75,-24.0
2314.0,-102115.20833333333,-4914.791666666667,-2115.2083333333335,2049.25,-66.45833333333333,42.708333333333336,-24.0
2316.0,-102082.66666666667,-4947.333333333333,-2082.6666666666665,2049.0,-66.66666666666667,42.666666666666664,-24.0
2318.0,-102050.125,-4979.875,-2050.125,2048.75,-66.875,42.625,-24.0
2320.0,-102017.58333333333,-5012.416666666667,-2017.5833333333335,2048.5,-67.08333333333333,42.583333333333336,-24.0
2322.0,-101985.04166666667,-5044.958333333333,-1985.0416666666667,2048.25,-67.29166666666667,42.541666666666664,-24.0
2324.0,-101952.5,-5077.5,-1952.5,2048.0,-67.5,42.5,-24.0
2326.0,-101919.95833333333,-5110.041666666667,-1919.9583333333335,2047.75,-67.70833333333333,42.458333333333336,-24.0
2328.0,-101887.41666666667,-5142.583333333333,-1887.4166666666667,2047.5,-67.91666666666667,42.416666666666664,-24.0
2330.0,-101854.875,-5175.125,-1854.875,2047.25,-68.125,42.375,-24.0
2332.0,-101822.33333333333,-5207.666666666667,-1822.3333333333335,2047.0,-68.33333333333333,42.333333333333336,-24.0
2334.0,-101789.79166666667,-5240.208333333333,-1789.7916666666667,2046.75,-68.54166666666667,42.291666666666664,-24.0
2336.0,-101757.25,-5272.75,-1757.25,2046.5,-68.75,42.25,-24.0
2338.0,-101724.70833333333,-5305.291666666667,-1724.7083333333335,2046.25,-68.95833333333333,42.208333333333336,-24.0
2340.0,-101692.16666666667,-5337.833333333333,-1692.1666666666667,2046.0,-69.16666666666667,42.166666666666664,-24.0
2342.0,-101659.625,-5370.375,-1659.625,2045.75,-69.375,42.125,-24.0
2344.0,-101627.08333333333,-5402.916666666667,-1627.0833333333335,2045.5,-69.58333333333333,42.083333333333336,-24.0
2346.0,-101594.54166666667,-5435.458333333333,-1594.5416666666667,2045.25,-69.79166666666667,42.041666666666664,-24.0
2348.0,-101578.27083333334,-5451.729166666666,-1578.2708333333335,2045.125,-69.89583333333334,42.02083333333333,-24.0
2350.0,-101562.0,-5468.0,-1562.0,2045.0,-70.0,42.0,-24.0
2352.0,-101529.45833333333,-5500.583333333333,-1594.5416666666667,2045.5416666666667,-70.125,42.0,-24.041666666666668
2354.0,-101496.91666666667,-5533.166666666667,-1627.0833333333333,2046.0833333333333,-70.25,42.0,-24.083333333333332
2356.0,-101464.375,-5565.75,-1659.625,2046.625,-70.375,42.0,-24.125
2358.0,-101431.83333333333,-5598.333333333333,-1692.1666666666667,2047.1666666666667,-70.5,42.0,-24.166666666666668
2360.0,-101399.29166666667,-5630.916666666667,-1724.7083333333333,2047.7083333333333,-70.625,42.0,-24.208333333333332
2362.0,-101366.75,-5663.5,-1757.25,2048.25,-70.75,42.0,-24.25
2364.0,-101334.20833333333,-5696.083333333333,-1789.7916666666667,2048.7916666666665,-70.875,42.0,-24.291666666666668
2366.0,-101301.66666666667,-5728.666666666667,-1822.3333333333333,2049.3333333333335,-71.0,42.0,-24.333333333333332
2368.0,-101269.125,-5761.25,-1854.875,2049.875,-71.125,42.0,-24.375
2370.0,-101236.58333333333,-5793.833333333333,-1887.4166666666665,2050.4166666666665,-71.25,42.0,-24.416666666666668
2372.0,-101204.04166666667,-5826.416666666667,-1919.9583333333333,2050.9583333333335,-71.375,42.0,-24.458333333333332
2374.0,-101171.5,-5859.0,-1952.5,2051.5,-71.5,42.0,-24.5
2376.0,-101138.95833333333,-5891.583333333333,-1985.0416666666665,2052.0416666666665,-71.625,42.0,-24.541666666666668
2378.0,-101106.41666666667,-5924.166666666667,-2017.5833333333333,2052.5833333333335,-71.75,42.0,-24.583333333333332
2380.0,-101073.875,-5956.75,-2050.125,2053.125,-71.875,42.0,-24.625
2382.0,-101041.33333333333,-5989.333333333333,-2082.6666666666665,2053.6666666666665,-72.0,42.0,-24.666666666666668
2384.0,-101008.79166666667,-6021.916666666667,-2115.208333333333,2054.2083333333335,-72.125,42.0,-24.708333333333332
2386.0,-100976.25,-6054.5,-2147.75,2054.75,-72.25,42.0,-24.75
2388.0,-100943.70833333333,-6087.083333333333,-2180.2916666666665,2055.2916666666665,-72.375,42.0,-24.791666666666668
2390.0,-100911.16666666667,-6119.666666666667,-2212.833333333333,2055.8333333333335,-72.5,42.0,-24.833333333333332
2392.0,-100878.625,-6152.25,-2245.375,2056.375,-72.625,42.0,-24.875
2394.0,-100846.08333333333,-6184.833333333333,-2277.9166666666665,2056.9166666666665,-72.75,42.0,-24.916666666666668
2396.0,-100813.54166666667,-6217.416666666667,-2310.458333333333,2057.4583333333335,-72.875,42.0,-24.958333333333332
2398.0,-100797.27083333334,-6233.708333333334,-2326.7291666666665,2057.729166666667,-72.9375,42.0,-24.979166666666664
2400.0,-100781.0,-6250.0,-2343.0,2058.0,-73.0,42.0,-25.0
2402.0,-100748.45833333333,-6282.541666666667,-2277.9166666666665,2057.7916666666665,-73.08333333333333,42.083333333333336,-25.0
2404.0,-100715.91666666667,-6315.083333333333,-2212.8333333333335,2057.5833333333335,-73.16666666666667,42.166666666666664,-25.0
2406.0,-100683.375,-6347.625,-2147.75,2057.375,-73.25,42.25,-25.0
2408.0,-100650.83333333333,-6380.166666666667,-2082.6666666666665,2057.1666666666665,-73.33333333333333,42.333333333333336,-25.0
2410.0,-100618.29166666667,-6412.708333333333,-2017.5833333333335,2056.9583333333335,-73.41666666666667,42.416666666666664,-25.0
2412.0,-100585.75,-6445.25,-1952.5,2056.75,-73.5,42.5,-25.0
2414.0,-100553.20833333333,-6477.791666666667,-1887.4166666666667,2056.5416666666665,-73.58333333333333,42.583333333333336,-25.0
2416.0,-100520.66666666667,-6510.333333333333,-1822.3333333333335,2056.3333333333335,-73.66666666666667,42.666666666666664,-25.0
2418.0,-100488.125,-6542.875,-1757.25,2056.125,-73.75,42.75,-25.0
2420.0,-100455.58333333333,-6575.416666666667,-1692.1666666666667,2055.9166666666665,-73.83333333333333,42.833333333333336,-25.0
2422.0,-100423.04166666667,-6607.958333333333,-1627.0833333333335,2055.7083333333335,-73.91666666666667,42.916666666666664,-25.0
2424.0,-100390.5,-6640.5,-1562.0,2055.5,-74.0,43.0,-25.0
2426.0,-100357.95833333333,-6673.041666666667,-1496.9166666666667,2055.2916666666665,-74.08333333333333,43.083333333333336,-25.0
2428.0,-100325.41666666667,-6705.583333333333,-1431.8333333333335,2055.0833333333335,-74.16666666666667,43.166666666666664,-25.0
2430.0,-100292.875,-6738.125,-1366.75,2054.875,-74.25,43.25,-25.0
2432.0,-100260.33333333333,-6770.666666666667,-1301.6666666666667,2054.6666666666665,-74.33333333333333,43.333333333333336,-25.0
2434.0,-100227.79166666667,-6803.208333333333,-1236.5833333333335,2054.4583333333335,-74.41666666666667,43.416666666666664,-25.0
2436.0,-100195.25,-6835.75,-1171.5,2054.25,-74.5,43.5,-25.0
2438.0,-100162.70833333333,-6868.291666666667,-1106.4166666666667,2054.0416666666665,-74.58333333333333,43.583333333333336,-25.0
2440.0,-100130.16666666667,-6900.833333333333,-1041.3333333333335,2053.8333333333335,-74.66666666666667,43.666666666666664,-25.0
2442.0,-100097.625,-6933.375,-976.25,2053.625,-74.75,43.75,-25.0
2444.0,-100065.08333333333,-6965.916666666667,-911.1666666666667,2053.4166666666665,-74.83333333333333,43.833333333333336,-25.0
2446.0,-100032.54166666667,-6998.458333333333,-846.0833333333335,2053.2083333333335,-74.91666666666667,43.916666666666664,-25.0
2448.0,-100016.27083333334,-7014.729166666666,-813.5416666666667,2053.104166666667,-74.95833333333334,43.95833333333333,-25.0
2450.0,-100000.0,-7031.0,-781.0,2053.0,-75.0,44.0,-25.0
2452.0,-100000.0,-7031.0,-748.4583333333334,2052.5416666666665,-75.0,44.0,-25.041666666666668
2454.0,-100000.0,-7031.0,-715.9166666666666,2052.0833333333335,-75.0,44.0,-25.083333333333332
2456.0,-100000.0,-7031.0,-683.375,2051.625,-75.0,44.0,-25.125
2458.0,-100000.0,-7031.0,-650.8333333333334,2051.1666666666665,-75.0,44.0,-25.166666666666668
2460.0,-100000.0,-7031.0,-618.2916666666667,2050.7083333333335,-75.0,44.0,-25.208333333333332
2462.0,-100000.0,-7031.0,-585.75,2050.25,-75.0,44.0,-25.25
2464.0,-100000.0,-7031.0,-553.2083333333334,2049.7916666666665,-75.0,44.0,-25.291666666666668
2466.0,-100000.0,-7031.0,-520.6666666666667,2049.3333333333335,-75.0,44.0,-25.333333333333332
2468.0,-100000.0,-7031.0,-488.125,2048.875,-75.0,44.0,-25.375
2470.0,-100000.0,-7031.0,-455.58333333333337,2048.4166666666665,-75.0,44.0,-25.416666666666668
2472.0,-100000.0,-7031.0,-423.0416666666667,2047.9583333333333,-75.0,44.0,-25.458333333333332
2474.0,-100000.0,-7031.0,-390.5,2047.5,-75.0,44.0,-25.5
2476.0,-100000.0,-7031.0,-357.95833333333337,2047.0416666666667,-75.0,44.0,-25.541666666666668
2478.0,-100000.0,-7031.0,-325.4166666666667,2046.5833333333333,-75.0,44.0,-25.583333333333332
2480.0,-100000.0,-7031.0,-292.87500000000006,2046.125,-75.0,44.0,-25.625
2482.0,-100000.0,-7031.0,-260.33333333333337,2045.6666666666667,-75.0,44.0,-25.666666666666668
2484.0,-100000.0,-7031.0,-227.79166666666674,2045.2083333333333,-75.0,44.0,-25.708333333333332
2486.0,-100000.0,-7031.0,-195.25,2044.75,-75.0,44.0,-25.75
2488.0,-100000.0,-7031.0,-162.70833333333337,2044.2916666666667,-75.0,44.0,-25.791666666666668
2490.0,-100000.0,-7031.0,-130.16666666666674,2043.8333333333333,-75.0,44.0,-25.833333333333332
2492.0,-100000.0,-7031.0,-97.625,2043.375,-75.0,44.0,-25.875
2494.0,-100000.0,-7031.0,-65.08333333333337,2042.9166666666667,-75.0,44.0,-25.916666666666668
2496.0,-100000.0,-7031.0,-32.54166666666674,2042.4583333333333,-75.0,44.0,-25.958333333333332
2498.0,-100000.0,-7031.0,-16.27083333333337,2042.2291666666665,-75.0,44.0,-25.979166666666664
2500.0,-100000.0,-7031.0,0.0,2042.0,-75.0,44.0,-26.0
2502.0,-100000.0,-6998.458333333333,0.0,2042.2916666666667,-74.95833333333333,44.083333333333336,-26.041666666666668
2504.0,-100000.0,-6965.916666666667,0.0,2042.5833333333333,-74.91666666666667,44.166666666666664,-26.083333333333332
2506.0,-100000.0,-6933.375,0.0,2042.875,-74.875,44.25,-26.125
2508.0,-100000.0,-6900.833333333333,0.0,2043.1666666666667,-74.83333333333333,44.333333333333336,-26.166666666666668
2510.0,-100000.0,-6868.291666666667,0.0,2043.4583333333333,-74.79166666666667,44.416666666666664,-26.208333333333332
2512.0,-100000.0,-6835.75,0.0,2043.75,-74.75,44.5,-26.25
2514.0,-100000.0,-6803.208333333333,0.0,2044.0416666666667,-74.70833333333333,44.583333333333336,-26.291666666666668
2516.0,-100000.0,-6770.666666666667,0.0,2044.3333333333333,-74.66666666666667,44.666666666666664,-26.333333333333332
2518.0,-100000.0,-6738.125,0.0,2044.625,-74.625,44.75,-26.375
2520.0,-100000.0,-6705.583333333333,0.0,2044.9166666666667,-74.58333333333333,44.833333333333336,-26.416666666666668
2522.0,-100000.0,-6673.041666666667,0.0,2045.2083333333333,-74.54166666666667,44.916666666666664,-26.458333333333332
2524.0,-100000.0,-6640.5,0.0,2045.5,-74.5,45.0,-26.5
2526.0,-100000.0,-6607.958333333333,0.0,2045.7916666666667,-74.45833333333333,45.083333333333336,-26.541666666666668
2528.0,-100000.0,-6575.416666666667,0.0,2046.0833333333333,-74.41666666666667,45.166666666666664,-26.583333333333332
