timestamp,accX,accY,accZ,pressure,gyroX,gyroY,gyroZ
0.0,-100840.2104289941,-7455.505917159764,-5377.884245562131,2058.352440828403,-14.448594674556212,35.694896449704146,-23.190458579881657
2.0,-100927.72633136097,-6926.831360946746,-5242.710059171598,2057.390532544379,-16.60207100591716,35.24112426035503,-23.473372781065088
4.0,-100986.0702662722,-6574.381656804734,-5152.593934911242,2056.74926035503,-18.037721893491124,34.93860946745562,-23.66198224852071
6.0,-101044.41420118345,-6221.931952662722,-5062.4778106508875,2056.1079881656806,-19.473372781065088,34.63609467455621,-23.850591715976332
8.0,-101102.7581360947,-5869.4822485207105,-4972.361686390533,2055.4667159763317,-20.90902366863905,34.3335798816568,-24.039201183431953
10.0,-101161.10207100594,-5517.032544378699,-4882.245562130178,2054.8254437869823,-22.34467455621302,34.031065088757394,-24.227810650887573
12.0,-101219.44600591717,-5164.582840236686,-4792.129437869822,2054.1841715976334,-23.78032544378698,33.728550295857985,-24.416420118343197
14.0,-101277.78994082841,-4812.133136094675,-4702.013313609467,2053.542899408284,-25.21597633136095,33.42603550295858,-24.605029585798817
16.0,-101336.13387573966,-4459.683431952662,-4611.8971893491125,2052.901627218935,-26.651627218934912,33.12352071005917,-24.793639053254438
18.0,-101394.4778106509,-4107.2337278106515,-4521.781065088758,2052.2603550295858,-28.087278106508876,32.821005917159766,-24.98224852071006
20.0,-101452.82174556213,-3754.7840236686393,-4431.664940828402,2051.619082840237,-29.52292899408284,32.51849112426036,-25.170857988165682
22.0,-101511.16568047338,-3402.334319526627,-4341.548816568047,2050.9778106508875,-30.958579881656807,32.21597633136095,-25.359467455621303
24.0,-101569.50961538462,-3049.8846153846152,-4251.432692307692,2050.3365384615386,-32.394230769230774,31.913461538461537,-25.548076923076923
26.0,-101627.85355029587,-2697.4349112426034,-4161.316568047338,2049.6952662721897,-33.82988165680473,31.61094674556213,-25.736686390532544
28.0,-101686.19748520711,-2344.9852071005917,-4071.2004437869823,2049.0539940828403,-35.2655325443787,31.308431952662723,-25.925295857988168
30.0,-101744.54142011834,-1992.5355029585799,-3981.084319526627,2048.4127218934914,-36.701183431952664,31.005917159763314,-26.11390532544379
32.0,-101802.88535502959,-1640.085798816568,-3890.9681952662722,2047.771449704142,-38.13683431952663,30.703402366863905,-26.30251479289941
34.0,-101861.22928994083,-1287.6360946745563,-3800.8520710059174,2047.1301775147929,-39.5724852071006,30.400887573964496,-26.49112426035503
36.0,-101919.57322485208,-935.1863905325445,-3710.735946745562,2046.4889053254437,-41.008136094674555,30.098372781065088,-26.67973372781065
38.0,-101977.91715976331,-582.7366863905327,-3620.619822485207,2045.8476331360948,-42.443786982248525,29.79585798816568,-26.868343195266274
40.0,-102036.26109467456,-230.28698224852087,-3530.503698224852,2045.2063609467457,-43.87943786982249,29.49334319526627,-27.056952662721894
42.0,-102094.6050295858,122.16272189349093,-3440.3875739644973,2044.5650887573966,-45.31508875739645,29.19082840236686,-27.245562130177515
44.0,-102152.94896449705,474.6124260355027,-3350.271449704142,2043.9238165680474,-46.75073964497042,28.888313609467453,-27.43417159763314
46.0,-102211.29289940828,827.0621301775154,-3260.155325443787,2043.2825443786983,-48.18639053254438,28.585798816568044,-27.62278106508876
48.0,-102269.63683431952,1179.5118343195263,-3170.039201183432,2042.6412721893491,-49.62204142011835,28.28328402366864,-27.81139053254438
50.0,-102312.96153846153,1502.5007396449705,-3035.4241863905327,2042.0011094674555,-51.11538461538461,27.961168639053255,-27.999260355029584
52.0,-102267.90384615384,1414.1183431952663,-2901.9275147928997,2042.0044378698226,-51.28846153846154,27.902366863905325,-27.997041420118343
54.0,-102237.86538461538,1355.1967455621302,-2812.929733727811,2042.0066568047337,-51.40384615384615,27.863165680473372,-27.995562130177515
56.0,-102207.82692307692,1296.275147928994,-2723.9319526627223,2042.008875739645,-51.51923076923077,27.82396449704142,-27.994082840236686
58.0,-102177.78846153845,1237.353550295858,-2634.9341715976334,2042.0110946745563,-51.63461538461539,27.784763313609467,-27.992603550295858
60.0,-102147.75,1178.4319526627219,-2545.9363905325445,2042.0133136094676,-51.75,27.745562130177515,-27.99112426035503
62.0,-102117.71153846153,1119.5103550295858,-2456.9386094674555,2042.0155325443786,-51.86538461538461,27.706360946745562,-27.9896449704142
64.0,-102087.67307692308,1060.5887573964496,-2367.940828402367,2042.01775147929,-51.980769230769226,27.66715976331361,-27.988165680473372
66.0,-102057.63461538461,1001.6671597633136,-2278.9430473372786,2042.0199704142012,-52.09615384615385,27.627958579881657,-27.986686390532544
68.0,-102027.59615384616,942.7455621301775,-2189.9452662721897,2042.0221893491125,-52.21153846153846,27.588757396449704,-27.985207100591715
70.0,-101997.55769230769,883.8239644970414,-2100.9474852071007,2042.0244082840236,-52.32692307692307,27.549556213017752,-27.983727810650887
72.0,-101967.51923076923,824.9023668639054,-2011.949704142012,2042.026627218935,-52.44230769230769,27.5103550295858,-27.98224852071006
74.0,-101937.48076923077,765.9807692307693,-1922.9519230769233,2042.0288461538462,-52.55769230769231,27.471153846153847,-27.98076923076923
76.0,-101907.4423076923,707.0591715976332,-1833.9541420118344,2042.0310650887575,-52.67307692307692,27.43195266272189,-27.9792899408284
78.0,-101877.40384615384,648.137573964497,-1744.9563609467457,2042.0332840236688,-52.78846153846154,27.392751479289938,-27.977810650887573
80.0,-101847.36538461538,589.2159763313609,-1655.958579881657,2042.0355029585799,-52.90384615384615,27.353550295857985,-27.976331360946745
82.0,-101817.32692307692,530.2943786982248,-1566.9607988165683,2042.0377218934912,-53.01923076923077,27.314349112426033,-27.974852071005916
84.0,-101787.28846153845,471.3727810650887,-1477.9630177514796,2042.0399408284025,-53.13461538461539,27.27514792899408,-27.973372781065088
86.0,-101757.25,412.4511834319526,-1388.9652366863907,2042.0421597633137,-53.25,27.235946745562128,-27.97189349112426
88.0,-101727.21153846153,353.52958579881647,-1299.967455621302,2042.0443786982248,-53.36538461538461,27.196745562130175,-27.97041420118343
90.0,-101697.17307692308,294.60798816568035,-1210.9696745562132,2042.0465976331361,-53.480769230769226,27.157544378698223,-27.968934911242602
92.0,-101667.13461538461,235.68639053254424,-1121.9718934911243,2042.0488165680474,-53.59615384615385,27.11834319526627,-27.967455621301774
94.0,-101637.09615384616,176.76479289940812,-1032.9741124260356,2042.0510355029587,-53.71153846153846,27.079142011834318,-27.965976331360945
96.0,-101607.05769230769,117.84319526627223,-943.9763313609469,2042.0532544378698,-53.82692307692307,27.039940828402365,-27.964497041420117
98.0,-101577.01923076923,58.921597633136116,-854.978550295858,2042.055473372781,-53.94230769230769,27.000739644970412,-27.96301775147929
100.0,-101532.25036982249,0.0,-751.5392011834319,2042.1157544378698,-54.11501479289941,26.92307692307692,-27.923446745562128
102.0,-101488.05917159763,0.0,-708.2144970414201,2042.2899408284025,-54.28698224852071,26.807692307692307,-27.809171597633135
104.0,-101458.59837278107,0.0,-679.3313609467456,2042.4060650887575,-54.40162721893491,26.73076923076923,-27.73298816568047
106.0,-101429.1375739645,0.0,-650.448224852071,2042.5221893491125,-54.51627218934911,26.653846153846153,-27.65680473372781
108.0,-101399.67677514792,0.0,-621.5650887573964,2042.6383136094676,-54.630917159763314,26.576923076923077,-27.580621301775146
110.0,-101370.21597633135,0.0,-592.6819526627219,2042.7544378698226,-54.74556213017751,26.5,-27.504437869822485
112.0,-101340.75517751479,0.0,-563.7988165680474,2042.8705621301776,-54.860207100591715,26.42307692307692,-27.42825443786982
114.0,-101311.29437869822,0.0,-534.9156804733727,2042.9866863905327,-54.97485207100592,26.346153846153843,-27.352071005917157
116.0,-101281.83357988166,0.0,-506.0325443786982,2043.1028106508877,-55.08949704142012,26.269230769230766,-27.275887573964496
118.0,-101252.37278106509,0.0,-477.14940828402365,2043.2189349112427,-55.20414201183432,26.19230769230769,-27.199704142011832
120.0,-101222.91198224852,0.0,-448.2662721893491,2043.3350591715978,-55.31878698224852,26.115384615384613,-27.12352071005917
122.0,-101193.45118343196,0.0,-419.38313609467457,2043.4511834319528,-55.43343195266272,26.038461538461537,-27.047337278106507
124.0,-101163.99038461538,0.0,-390.5,2043.5673076923076,-55.54807692307692,25.96153846153846,-26.971153846153847
126.0,-101134.52958579881,0.0,-361.61686390532543,2043.6834319526627,-55.662721893491124,25.884615384615383,-26.894970414201183
128.0,-101105.06878698224,0.0,-332.73372781065086,2043.7995562130177,-55.77736686390533,25.807692307692307,-26.81878698224852
130.0,-101075.60798816568,0.0,-303.8505917159763,2043.9156804733727,-55.892011834319526,25.73076923076923,-26.742603550295858
132.0,-101046.14718934911,0.0,-274.9674556213017,2044.0318047337278,-56.00665680473373,25.653846153846153,-26.666420118343193
134.0,-101016.68639053254,0.0,-246.08431952662716,2044.1479289940828,-56.12130177514793,25.576923076923077,-26.590236686390533
136.0,-100987.22559171598,0.0,-217.2011834319526,2044.2640532544378,-56.23594674556213,25.5,-26.51405325443787
138.0,-100957.76479289941,0.0,-188.31804733727802,2044.3801775147929,-56.350591715976336,25.42307692307692,-26.437869822485204
140.0,-100928.30399408285,0.0,-159.43491124260345,2044.496301775148,-56.46523668639053,25.346153846153843,-26.361686390532544
142.0,-100898.84319526626,0.0,-130.55177514792888,2044.612426035503,-56.57988165680474,25.269230769230766,-26.28550295857988
144.0,-100869.3823964497,0.0,-101.66863905325431,2044.728550295858,-56.694526627218934,25.19230769230769,-26.20931952662722
146.0,-100839.92159763313,0.0,-72.78550295857985,2044.844674556213,-56.80917159763314,25.115384615384613,-26.133136094674555
148.0,-100810.46079881657,0.0,-43.902366863905286,2044.960798816568,-56.923816568047336,25.038461538461537,-26.056952662721894
150.0,-100780.71116863906,0.0,-29.46079881656805,2045.1494082840236,-57.07655325443787,24.923446745562128,-25.96153846153846
152.0,-100779.84467455621,0.0,-72.7855029585799,2045.3668639053255,-57.19082840236687,24.809171597633135,-25.903846153846153
154.0,-100779.26701183432,0.0,-101.66863905325445,2045.5118343195265,-57.267011834319526,24.73298816568047,-25.865384615384613
156.0,-100778.68934911242,0.0,-130.55177514792902,2045.6568047337278,-57.34319526627219,24.65680473372781,-25.826923076923077
158.0,-100778.11168639053,0.0,-159.4349112426036,2045.801775147929,-57.419378698224854,24.580621301775146,-25.788461538461537
160.0,-100777.53402366863,0.0,-188.31804733727813,2045.9467455621302,-57.49556213017752,24.504437869822485,-25.75
162.0,-100776.95636094674,0.0,-217.2011834319527,2046.0917159763314,-57.571745562130175,24.42825443786982,-25.71153846153846
164.0,-100776.37869822486,0.0,-246.08431952662727,2046.2366863905324,-57.64792899408284,24.352071005917157,-25.673076923076923
166.0,-100775.80103550295,0.0,-274.96745562130184,2046.3816568047337,-57.724112426035504,24.275887573964496,-25.634615384615383
168.0,-100775.22337278107,0.0,-303.8505917159764,2046.526627218935,-57.80029585798817,24.199704142011832,-25.596153846153847
170.0,-100774.64571005917,0.0,-332.733727810651,2046.6715976331361,-57.876479289940825,24.12352071005917,-25.557692307692307
172.0,-100774.06804733728,0.0,-361.6168639053255,2046.8165680473373,-57.95266272189349,24.047337278106507,-25.51923076923077
174.0,-100773.49038461538,0.0,-390.50000000000006,2046.9615384615386,-58.02884615384615,23.971153846153847,-25.48076923076923
176.0,-100772.91272189349,0.0,-419.3831360946746,2047.1065088757396,-58.10502958579882,23.894970414201183,-25.44230769230769
178.0,-100772.3350591716,0.0,-448.2662721893492,2047.2514792899408,-58.18121301775148,23.81878698224852,-25.403846153846153
180.0,-100771.7573964497,0.0,-477.14940828402376,2047.396449704142,-58.25739644970414,23.742603550295858,-25.365384615384613
182.0,-100771.17973372781,0.0,-506.03254437869833,2047.5414201183432,-58.3335798816568,23.666420118343193,-25.326923076923077
184.0,-100770.60207100591,0.0,-534.9156804733728,2047.6863905325445,-58.40976331360947,23.590236686390533,-25.288461538461537
186.0,-100770.02440828402,0.0,-563.7988165680474,2047.8313609467455,-58.48594674556213,23.51405325443787,-25.25
188.0,-100769.44674556213,0.0,-592.681952662722,2047.9763313609467,-58.56213017751479,23.437869822485204,-25.21153846153846
190.0,-100768.86908284023,0.0,-621.5650887573966,2048.121301775148,-58.63831360946745,23.361686390532544,-25.173076923076923
192.0,-100768.29142011834,0.0,-650.4482248520711,2048.266272189349,-58.71449704142012,23.28550295857988,-25.134615384615383
194.0,-100767.71375739644,0.0,-679.3313609467457,2048.4112426035504,-58.79068047337278,23.20931952662722,-25.096153846153847
196.0,-100767.13609467456,0.0,-708.2144970414201,2048.5562130177514,-58.86686390532544,23.133136094674555,-25.057692307692307
198.0,-100766.55843195265,0.0,-737.0976331360947,2048.701183431953,-58.9430473372781,23.056952662721894,-25.01923076923077
200.0,-100750.96116863904,0.0,-750.6727071005918,2048.7000739644973,-59.03809171597633,22.96153846153846,-24.96153846153846
202.0,-100705.9023668639,0.0,-704.7485207100592,2048.2618343195268,-59.094674556213015,22.903846153846153,-24.903846153846153
204.0,-100675.86316568046,0.0,-674.1323964497042,2047.969674556213,-59.13239644970414,22.865384615384613,-24.865384615384613
206.0,-100645.82396449703,0.0,-643.5162721893491,2047.6775147928993,-59.17011834319526,22.826923076923077,-24.826923076923077
208.0,-100615.7847633136,0.0,-612.9001479289941,2047.3853550295858,-59.20784023668639,22.788461538461537,-24.788461538461537
210.0,-100585.74556213016,0.0,-582.2840236686391,2047.0931952662722,-59.24556213017751,22.75,-24.75
212.0,-100555.70636094674,0.0,-551.667899408284,2046.8010355029585,-59.283284023668635,22.71153846153846,-24.71153846153846
214.0,-100525.66715976331,0.0,-521.051775147929,2046.508875739645,-59.32100591715976,22.673076923076923,-24.673076923076923
216.0,-100495.62795857988,0.0,-490.435650887574,2046.2167159763314,-59.35872781065088,22.634615384615383,-24.634615384615383
218.0,-100465.58875739644,0.0,-459.819526627219,2045.9245562130177,-59.39644970414201,22.596153846153847,-24.596153846153847
220.0,-100435.54955621301,0.0,-429.20340236686394,2045.6323964497042,-59.43417159763313,22.557692307692307,-24.557692307692307
222.0,-100405.51035502958,0.0,-398.5872781065089,2045.3402366863904,-59.471893491124256,22.51923076923077,-24.51923076923077
224.0,-100375.47115384614,0.0,-367.97115384615387,2045.048076923077,-59.50961538461538,22.48076923076923,-24.48076923076923
226.0,-100345.43195266271,0.0,-337.35502958579883,2044.7559171597634,-59.54733727810651,22.44230769230769,-24.44230769230769
228.0,-100315.39275147927,0.0,-306.7389053254438,2044.4637573964496,-59.585059171597635,22.403846153846153,-24.403846153846153
230.0,-100285.35355029584,0.0,-276.12278106508876,2044.1715976331361,-59.62278106508876,22.365384615384613,-24.365384615384613
232.0,-100255.3143491124,0.0,-245.50665680473378,2043.8794378698224,-59.66050295857988,22.326923076923077,-24.326923076923077
234.0,-100225.27514792897,0.0,-214.89053254437874,2043.5872781065088,-59.69822485207101,22.288461538461537,-24.288461538461537
236.0,-100195.23594674554,0.0,-184.2744082840237,2043.2951183431953,-59.73594674556213,22.25,-24.25
238.0,-100165.19674556212,0.0,-153.65828402366867,2043.0029585798816,-59.773668639053255,22.21153846153846,-24.21153846153846
240.0,-100135.15754437869,0.0,-123.04215976331363,2042.710798816568,-59.81139053254438,22.173076923076923,-24.173076923076923
242.0,-100105.11834319525,0.0,-92.4260355029586,2042.4186390532545,-59.849112426035504,22.134615384615383,-24.134615384615383
244.0,-100075.07914201182,0.0,-61.80991124260356,2042.1264792899408,-59.88683431952663,22.096153846153847,-24.096153846153847
246.0,-100045.03994082838,0.0,-31.193786982248525,2041.8343195266273,-59.92455621301775,22.057692307692307,-24.057692307692307
248.0,-100015.00073964495,0.0,-0.5776627218934891,2041.5421597633135,-59.962278106508876,22.01923076923077,-24.01923076923077
250.0,-99970.21227810648,-0.5776627218934911,59.21042899408285,2041.4940828402368,-59.99963017751479,21.961908284023668,-23.961908284023668
252.0,-99925.9644970414,-2.3106508875739644,146.72633136094677,2042.2263313609467,-59.99852071005917,21.90532544378698,-23.90532544378698
254.0,-99896.46597633134,-3.4659763313609466,205.07026627218937,2042.7144970414201,-59.99778106508876,21.867603550295858,-23.867603550295858
256.0,-99866.96745562128,-4.621301775147929,263.414201183432,2043.2026627218936,-59.99704142011834,21.829881656804734,-23.829881656804734
258.0,-99837.46893491123,-5.776627218934911,321.7581360946746,2043.6908284023668,-59.99630177514793,21.79215976331361,-23.79215976331361
260.0,-99807.97041420116,-6.931952662721893,380.1020710059172,2044.1789940828403,-59.99556213017751,21.754437869822485,-23.754437869822485
262.0,-99778.4718934911,-8.087278106508876,438.4460059171598,2044.6671597633137,-59.9948224852071,21.71671597633136,-23.71671597633136
264.0,-99748.97337278105,-9.242603550295858,496.78994082840245,2045.1553254437872,-59.994082840236686,21.678994082840237,-23.678994082840237
266.0,-99719.474852071,-10.39792899408284,555.1338757396451,2045.6434911242604,-59.99334319526627,21.641272189349113,-23.641272189349113
268.0,-99689.97633136093,-11.553254437869821,613.4778106508877,2046.131656804734,-59.992603550295854,21.60355029585799,-23.60355029585799
270.0,-99660.47781065087,-12.708579881656805,671.8217455621303,2046.6198224852074,-59.991863905325445,21.565828402366865,-23.565828402366865
272.0,-99630.97928994082,-13.863905325443787,730.1656804733728,2047.1079881656806,-59.99112426035503,21.52810650887574,-23.52810650887574
274.0,-99601.48076923075,-15.019230769230768,788.5096153846155,2047.596153846154,-59.99038461538461,21.490384615384613,-23.490384615384613
276.0,-99571.9822485207,-16.174556213017752,846.8535502958581,2048.0843195266275,-59.9896449704142,21.45266272189349,-23.45266272189349
278.0,-99542.48372781064,-17.329881656804734,905.1974852071007,2048.5724852071007,-59.98890532544378,21.414940828402365,-23.414940828402365
280.0,-99512.98520710059,-18.485207100591715,963.5414201183434,2049.0606508875744,-59.98816568047337,21.37721893491124,-23.37721893491124
282.0,-99483.48668639052,-19.640532544378697,1021.885355029586,2049.5488165680476,-59.987426035502956,21.339497041420117,-23.339497041420117
284.0,-99453.98816568046,-20.79585798816568,1080.2292899408285,2050.036982248521,-59.98668639053254,21.301775147928993,-23.301775147928993
286.0,-99424.48964497041,-21.95118343195266,1138.573224852071,2050.5251479289946,-59.985946745562124,21.26405325443787,-23.26405325443787
288.0,-99394.99112426036,-23.106508875739642,1196.9171597633137,2051.013313609468,-59.985207100591715,21.226331360946745,-23.226331360946745
290.0,-99365.49260355029,-24.261834319526628,1255.2610946745563,2051.501479289941,-59.9844674556213,21.18860946745562,-23.18860946745562
292.0,-99335.99408284023,-25.41715976331361,1313.605029585799,2051.9896449704147,-59.98372781065088,21.150887573964496,-23.150887573964496
294.0,-99306.49556213018,-26.57248520710059,1371.9489644970415,2052.477810650888,-59.98298816568047,21.113165680473372,-23.113165680473372
296.0,-99276.99704142012,-27.727810650887573,1430.292899408284,2052.965976331361,-59.98224852071006,21.075443786982248,-23.075443786982248
298.0,-99247.49852071005,-28.883136094674555,1488.6368343195268,2053.454142011835,-59.98150887573964,21.037721893491124,-23.037721893491124
300.0,-99218.0,-59.21042899408285,1532.8280325443789,2053.88350591716,-59.96153846153845,20.999630177514792,-22.999630177514792
302.0,-99218.0,-146.72633136094677,1490.3698224852071,2053.7071005917164,-59.903846153846146,20.99852071005917,-22.99852071005917
304.0,-99218.0,-205.07026627218937,1462.064349112426,2053.5894970414206,-59.86538461538461,20.99778106508876,-22.99778106508876
306.0,-99218.0,-263.414201183432,1433.758875739645,2053.471893491125,-59.82692307692307,20.997041420118343,-22.997041420118343
308.0,-99218.0,-321.7581360946746,1405.4534023668639,2053.3542899408285,-59.78846153846153,20.996301775147927,-22.996301775147927
310.0,-99218.0,-380.1020710059172,1377.1479289940828,2053.2366863905327,-59.74999999999999,20.995562130177515,-22.995562130177515
312.0,-99218.0,-438.4460059171598,1348.8424556213017,2053.119082840237,-59.71153846153846,20.994822485207102,-22.994822485207102
314.0,-99218.0,-496.78994082840245,1320.5369822485209,2053.001479289941,-59.67307692307692,20.994082840236686,-22.994082840236686
316.0,-99218.0,-555.1338757396451,1292.2315088757396,2052.883875739645,-59.63461538461538,20.99334319526627,-22.99334319526627
318.0,-99218.0,-613.4778106508877,1263.9260355029587,2052.7662721893494,-59.59615384615384,20.992603550295858,-22.992603550295858
320.0,-99218.0,-671.8217455621303,1235.6205621301776,2052.6486686390535,-59.55769230769231,20.991863905325445,-22.991863905325445
322.0,-99218.0,-730.1656804733728,1207.3150887573966,2052.5310650887577,-59.51923076923077,20.99112426035503,-22.99112426035503
324.0,-99218.0,-788.5096153846155,1179.0096153846155,2052.413461538462,-59.480769230769226,20.990384615384613,-22.990384615384613
326.0,-99218.0,-846.8535502958581,1150.7041420118344,2052.2958579881656,-59.442307692307686,20.9896449704142,-22.9896449704142
328.0,-99218.0,-905.1974852071007,1122.3986686390533,2052.17825443787,-59.403846153846146,20.98890532544379,-22.98890532544379
330.0,-99218.0,-963.5414201183434,1094.0931952662722,2052.060650887574,-59.36538461538461,20.988165680473372,-22.988165680473372
332.0,-99218.0,-1021.885355029586,1065.7877218934912,2051.943047337278,-59.32692307692307,20.987426035502956,-22.987426035502956
334.0,-99218.0,-1080.2292899408285,1037.48224852071,2051.8254437869823,-59.28846153846153,20.986686390532544,-22.986686390532544
336.0,-99218.0,-1138.573224852071,1009.176775147929,2051.7078402366865,-59.24999999999999,20.98594674556213,-22.98594674556213
338.0,-99218.0,-1196.9171597633137,980.8713017751479,2051.5902366863907,-59.21153846153846,20.985207100591715,-22.985207100591715
340.0,-99218.0,-1255.2610946745563,952.565828402367,2051.472633136095,-59.17307692307692,20.9844674556213,-22.9844674556213
342.0,-99218.0,-1313.605029585799,924.2603550295859,2051.3550295857985,-59.13461538461538,20.983727810650887,-22.983727810650887
344.0,-99218.0,-1371.9489644970415,895.9548816568048,2051.2374260355027,-59.09615384615384,20.982988165680474,-22.982988165680474
346.0,-99218.0,-1430.292899408284,867.6494082840237,2051.119822485207,-59.05769230769231,20.98224852071006,-22.98224852071006
348.0,-99218.0,-1488.6368343195268,839.3439349112426,2051.002218934911,-59.01923076923077,20.981508875739642,-22.981508875739642
350.0,-99217.42233727811,-1532.2503698224853,840.4992603550296,2050.773668639053,-58.96042899408283,20.962278106508876,-22.96153846153846
352.0,-99215.68934911242,-1488.0591715976332,928.8816568047338,2050.4408284023666,-58.899408284023664,20.90680473372781,-22.903846153846153
354.0,-99214.53402366863,-1458.598372781065,987.8032544378698,2050.2189349112423,-58.85872781065088,20.8698224852071,-22.865384615384613
356.0,-99213.37869822484,-1429.137573964497,1046.724852071006,2049.9970414201184,-58.8180473372781,20.83284023668639,-22.826923076923077
358.0,-99212.22337278107,-1399.676775147929,1105.646449704142,2049.775147928994,-58.77736686390532,20.79585798816568,-22.788461538461537
360.0,-99211.06804733728,-1370.215976331361,1164.5680473372781,2049.55325443787,-58.73668639053254,20.75887573964497,-22.75
362.0,-99209.91272189349,-1340.7551775147929,1223.4896449704142,2049.3313609467455,-58.69600591715976,20.72189349112426,-22.71153846153846
364.0,-99208.7573964497,-1311.2943786982248,1282.4112426035504,2049.109467455621,-58.65532544378698,20.68491124260355,-22.673076923076923
366.0,-99207.60207100591,-1281.8335798816568,1341.3328402366865,2048.887573964497,-58.6146449704142,20.64792899408284,-22.634615384615383
368.0,-99206.44674556212,-1252.3727810650887,1400.2544378698226,2048.665680473373,-58.573964497041416,20.61094674556213,-22.596153846153847
370.0,-99205.29142011833,-1222.9119822485206,1459.1760355029587,2048.4437869822486,-58.533284023668635,20.57396449704142,-22.557692307692307
372.0,-99204.13609467454,-1193.4511834319528,1518.0976331360948,2048.2218934911243,-58.492603550295854,20.53698224852071,-22.51923076923077
374.0,-99202.98076923075,-1163.9903846153848,1577.019230769231,2048.0,-58.45192307692307,20.5,-22.48076923076923
376.0,-99201.82544378698,-1134.5295857988167,1635.940828402367,2047.7781065088757,-58.41124260355029,20.46301775147929,-22.44230769230769
378.0,-99200.67011834319,-1105.0687869822486,1694.8624260355032,2047.5562130177516,-58.37056213017751,20.42603550295858,-22.403846153846153
380.0,-99199.5147928994,-1075.6079881656806,1753.7840236686393,2047.3343195266273,-58.32988165680473,20.38905325443787,-22.365384615384613
382.0,-99198.35946745561,-1046.1471893491125,1812.7056213017754,2047.112426035503,-58.28920118343195,20.35207100591716,-22.326923076923077
384.0,-99197.20414201182,-1016.6863905325444,1871.6272189349115,2046.8905325443789,-58.24852071005917,20.31508875739645,-22.288461538461537
386.0,-99196.04881656803,-987.2255917159763,1930.5488165680476,2046.6686390532545,-58.20784023668639,20.27810650887574,-22.25
388.0,-99194.89349112424,-957.7647928994082,1989.4704142011838,2046.4467455621302,-58.167159763313606,20.24112426035503,-22.21153846153846
390.0,-99193.73816568045,-928.3039940828402,2048.39201183432,2046.224852071006,-58.126479289940825,20.20414201183432,-22.173076923076923
392.0,-99192.58284023668,-898.8431952662721,2107.313609467456,2046.0029585798818,-58.085798816568044,20.16715976331361,-22.134615384615383
394.0,-99191.42751479289,-869.3823964497041,2166.235207100592,2045.7810650887575,-58.04511834319526,20.1301775147929,-22.096153846153847
396.0,-99190.2721893491,-839.9215976331361,2225.1568047337278,2045.5591715976332,-58.00443786982248,20.09319526627219,-22.057692307692307
398.0,-99189.1168639053,-810.4607988165681,2284.078402366864,2045.337278106509,-57.9637573964497,20.05621301775148,-22.01923076923077
400.0,-99158.50073964495,-781.0,2342.7111686390535,2045.226701183432,-57.84652366863905,20.038091715976332,-21.96153846153846
402.0,-99070.11834319525,-781.0,2341.844674556213,2045.5606508875742,-57.61686390532544,20.09467455621302,-21.903846153846153
404.0,-99011.1967455621,-781.0,2341.2670118343194,2045.7832840236688,-57.4637573964497,20.132396449704142,-21.865384615384613
406.0,-98952.27514792897,-781.0,2340.689349112426,2046.0059171597634,-57.31065088757396,20.170118343195266,-21.826923076923077
408.0,-98893.35355029584,-781.0,2340.1116863905327,2046.2285502958582,-57.15754437869822,20.20784023668639,-21.788461538461537
410.0,-98834.43195266271,-781.0,2339.534023668639,2046.4511834319528,-57.00443786982248,20.245562130177515,-21.75
412.0,-98775.51035502958,-781.0,2338.9563609467455,2046.6738165680474,-56.851331360946745,20.28328402366864,-21.71153846153846
414.0,-98716.58875739643,-781.0,2338.378698224852,2046.896449704142,-56.69822485207101,20.321005917159763,-21.673076923076923
416.0,-98657.6671597633,-781.0,2337.8010355029587,2047.1190828402368,-56.54511834319526,20.358727810650887,-21.634615384615383
418.0,-98598.74556213016,-781.0,2337.223372781065,2047.3417159763314,-56.392011834319526,20.39644970414201,-21.596153846153847
420.0,-98539.82396449703,-781.0,2336.6457100591715,2047.564349112426,-56.23890532544379,20.434171597633135,-21.557692307692307
422.0,-98480.9023668639,-781.0,2336.068047337278,2047.7869822485209,-56.085798816568044,20.47189349112426,-21.51923076923077
424.0,-98421.98076923075,-781.0,2335.4903846153848,2048.0096153846152,-55.93269230769231,20.509615384615387,-21.48076923076923
426.0,-98363.05917159762,-781.0,2334.912721893491,2048.23224852071,-55.77958579881657,20.54733727810651,-21.44230769230769
428.0,-98304.13757396449,-781.0,2334.3350591715975,2048.454881656805,-55.626479289940825,20.585059171597635,-21.403846153846153
430.0,-98245.21597633135,-781.0,2333.757396449704,2048.6775147928993,-55.47337278106509,20.62278106508876,-21.365384615384613
432.0,-98186.29437869822,-781.0,2333.1797337278103,2048.900147928994,-55.32026627218935,20.660502958579883,-21.326923076923077
434.0,-98127.37278106509,-781.0,2332.602071005917,2049.122781065089,-55.167159763313606,20.698224852071007,-21.288461538461537
436.0,-98068.45118343194,-781.0,2332.0244082840236,2049.3454142011833,-55.01405325443787,20.73594674556213,-21.25
438.0,-98009.52958579881,-781.0,2331.44674556213,2049.568047337278,-54.86094674556213,20.773668639053255,-21.21153846153846
440.0,-97950.60798816568,-781.0,2330.8690828402364,2049.790680473373,-54.707840236686394,20.81139053254438,-21.173076923076923
442.0,-97891.68639053254,-781.0,2330.291420118343,2050.0133136094673,-54.55473372781065,20.849112426035504,-21.134615384615383
444.0,-97832.76479289941,-781.0,2329.7137573964496,2050.235946745562,-54.40162721893491,20.886834319526628,-21.096153846153847
446.0,-97773.84319526626,-781.0,2329.1360946745563,2050.458579881657,-54.248520710059175,20.924556213017752,-21.057692307692307
448.0,-97714.92159763313,-781.0,2328.5584319526624,2050.6812130177514,-54.09541420118343,20.962278106508876,-21.01923076923077
450.0,-97656.0,-780.7111686390533,2312.6727071005917,2050.8095414201184,-53.88461538461539,21.0,-20.962278106508876
452.0,-97656.0,-779.844674556213,2266.748520710059,2050.526627218935,-53.71153846153846,21.0,-20.90680473372781
454.0,-97656.0,-779.2670118343195,2236.132396449704,2050.338017751479,-53.59615384615385,21.0,-20.8698224852071
456.0,-97656.0,-778.689349112426,2205.516272189349,2050.1494082840236,-53.48076923076923,21.0,-20.83284023668639
458.0,-97656.0,-778.1116863905326,2174.900147928994,2049.960798816568,-53.36538461538461,21.0,-20.79585798816568
460.0,-97656.0,-777.5340236686391,2144.284023668639,2049.7721893491125,-53.25,21.0,-20.75887573964497
462.0,-97656.0,-776.9563609467456,2113.667899408284,2049.583579881657,-53.13461538461539,21.0,-20.72189349112426
464.0,-97656.0,-776.3786982248521,2083.0517751479288,2049.394970414201,-53.019230769230774,21.0,-20.68491124260355
466.0,-97656.0,-775.8010355029586,2052.435650887574,2049.2063609467455,-52.90384615384615,21.0,-20.64792899408284
468.0,-97656.0,-775.2233727810651,2021.819526627219,2049.01775147929,-52.78846153846154,21.0,-20.61094674556213
470.0,-97656.0,-774.6457100591716,1991.2034023668639,2048.8291420118344,-52.67307692307693,21.0,-20.57396449704142
472.0,-97656.0,-774.0680473372781,1960.5872781065088,2048.640532544379,-52.55769230769231,21.0,-20.53698224852071
474.0,-97656.0,-773.4903846153846,1929.9711538461538,2048.451923076923,-52.44230769230769,21.0,-20.5
476.0,-97656.0,-772.9127218934912,1899.3550295857988,2048.2633136094673,-52.32692307692308,21.0,-20.46301775147929
478.0,-97656.0,-772.3350591715977,1868.7389053254437,2048.074704142012,-52.21153846153846,21.0,-20.42603550295858
480.0,-97656.0,-771.7573964497042,1838.1227810650887,2047.8860946745563,-52.09615384615385,21.0,-20.38905325443787
482.0,-97656.0,-771.1797337278107,1807.5066568047337,2047.6974852071005,-51.98076923076923,21.0,-20.35207100591716
484.0,-97656.0,-770.6020710059172,1776.8905325443789,2047.508875739645,-51.86538461538461,21.0,-20.31508875739645
486.0,-97656.0,-770.0244082840237,1746.2744082840236,2047.3202662721894,-51.75,21.0,-20.27810650887574
488.0,-97656.0,-769.4467455621302,1715.6582840236688,2047.1316568047337,-51.63461538461539,21.0,-20.24112426035503
490.0,-97656.0,-768.8690828402367,1685.0421597633135,2046.9430473372781,-51.519230769230774,21.0,-20.20414201183432
492.0,-97656.0,-768.2914201183432,1654.4260355029587,2046.7544378698226,-51.40384615384615,21.0,-20.16715976331361
494.0,-97656.0,-767.7137573964498,1623.8099112426037,2046.5658284023668,-51.28846153846154,21.0,-20.1301775147929
496.0,-97656.0,-767.1360946745563,1593.1937869822486,2046.3772189349113,-51.17307692307693,21.0,-20.09319526627219
498.0,-97656.0,-766.5584319526628,1562.5776627218936,2046.1886094674555,-51.05769230769231,21.0,-20.05621301775148
500.0,-97656.0,-751.5392011834319,1502.7895710059174,2046.001849112426,-50.88461538461539,20.999630177514792,-20.037721893491124
502.0,-97656.0,-708.2144970414201,1415.2736686390533,2046.0073964497042,-50.71153846153846,20.99852071005917,-20.09319526627219
504.0,-97656.0,-679.3313609467456,1356.9297337278108,2046.0110946745563,-50.59615384615385,20.99778106508876,-20.1301775147929
506.0,-97656.0,-650.448224852071,1298.585798816568,2046.0147928994083,-50.48076923076923,20.997041420118343,-20.16715976331361
508.0,-97656.0,-621.5650887573964,1240.2418639053255,2046.0184911242602,-50.36538461538461,20.996301775147927,-20.20414201183432
510.0,-97656.0,-592.6819526627219,1181.897928994083,2046.0221893491123,-50.25,20.995562130177515,-20.24112426035503
512.0,-97656.0,-563.7988165680474,1123.5539940828403,2046.0258875739644,-50.13461538461539,20.994822485207102,-20.27810650887574
514.0,-97656.0,-534.9156804733727,1065.2100591715975,2046.0295857988165,-50.019230769230774,20.994082840236686,-20.31508875739645
516.0,-97656.0,-506.0325443786982,1006.866124260355,2046.0332840236686,-49.90384615384615,20.99334319526627,-20.35207100591716
518.0,-97656.0,-477.14940828402365,948.5221893491124,2046.0369822485206,-49.78846153846154,20.992603550295858,-20.38905325443787
520.0,-97656.0,-448.2662721893491,890.1782544378698,2046.0406804733727,-49.67307692307693,20.991863905325445,-20.42603550295858
522.0,-97656.0,-419.38313609467457,831.8343195266273,2046.0443786982248,-49.55769230769231,20.99112426035503,-20.46301775147929
524.0,-97656.0,-390.5,773.4903846153846,2046.0480769230767,-49.44230769230769,20.990384615384613,-20.5
526.0,-97656.0,-361.61686390532543,715.146449704142,2046.0517751479288,-49.32692307692308,20.9896449704142,-20.53698224852071
528.0,-97656.0,-332.73372781065086,656.8025147928994,2046.0554733727809,-49.21153846153846,20.98890532544379,-20.57396449704142
530.0,-97656.0,-303.8505917159763,598.4585798816568,2046.059171597633,-49.09615384615385,20.988165680473372,-20.61094674556213
532.0,-97656.0,-274.9674556213017,540.1146449704141,2046.062869822485,-48.98076923076923,20.987426035502956,-20.64792899408284
534.0,-97656.0,-246.08431952662716,481.7707100591715,2046.0665680473371,-48.86538461538461,20.986686390532544,-20.68491124260355
536.0,-97656.0,-217.2011834319526,423.426775147929,2046.0702662721892,-48.75,20.98594674556213,-20.72189349112426
538.0,-97656.0,-188.31804733727802,365.08284023668625,2046.0739644970413,-48.63461538461539,20.985207100591715,-20.75887573964497
540.0,-97656.0,-159.43491124260345,306.73890532544374,2046.0776627218934,-48.519230769230774,20.9844674556213,-20.79585798816568
542.0,-97656.0,-130.55177514792888,248.394970414201,2046.0813609467452,-48.40384615384615,20.983727810650887,-20.83284023668639
544.0,-97656.0,-101.66863905325431,190.05103550295848,2046.0850591715973,-48.28846153846154,20.982988165680474,-20.8698224852071
546.0,-97656.0,-72.78550295857985,131.70710059171597,2046.0887573964494,-48.17307692307693,20.98224852071006,-20.90680473372781
548.0,-97656.0,-43.902366863905286,73.36316568047323,2046.0924556213015,-48.05769230769231,20.981508875739642,-20.94378698224852
550.0,-97656.86686390534,-29.749630177514796,29.46079881656805,2046.189718934911,-47.88498520710059,20.962278106508876,-20.961908284023668
552.0,-97659.4674556213,-73.94082840236688,72.7855029585799,2046.4704142011833,-47.71301775147929,20.90680473372781,-20.90532544378698
554.0,-97661.20118343196,-103.40162721893492,101.66863905325445,2046.657544378698,-47.59837278106509,20.8698224852071,-20.867603550295858
556.0,-97662.9349112426,-132.86242603550298,130.55177514792902,2046.8446745562128,-47.48372781065089,20.83284023668639,-20.829881656804734
558.0,-97664.66863905326,-162.32322485207104,159.4349112426036,2047.0318047337275,-47.369082840236686,20.79585798816568,-20.79215976331361
560.0,-97666.4023668639,-191.78402366863907,188.31804733727813,2047.2189349112425,-47.25443786982249,20.75887573964497,-20.754437869822485
562.0,-97668.13609467456,-221.24482248520712,217.2011834319527,2047.4060650887573,-47.139792899408285,20.72189349112426,-20.71671597633136
564.0,-97669.86982248521,-250.70562130177518,246.08431952662727,2047.593195266272,-47.02514792899408,20.68491124260355,-20.678994082840237
566.0,-97671.60355029585,-280.16642011834324,274.96745562130184,2047.7803254437868,-46.91050295857988,20.64792899408284,-20.641272189349113
568.0,-97673.33727810651,-309.6272189349113,303.8505917159764,2047.9674556213017,-46.79585798816568,20.61094674556213,-20.60355029585799
570.0,-97675.07100591715,-339.08801775147936,332.733727810651,2048.1545857988162,-46.68121301775148,20.57396449704142,-20.565828402366865
572.0,-97676.80473372781,-368.54881656804736,361.6168639053255,2048.341715976331,-46.56656804733728,20.53698224852071,-20.52810650887574
574.0,-97678.53846153847,-398.0096153846154,390.50000000000006,2048.528846153846,-46.45192307692308,20.5,-20.490384615384613
576.0,-97680.27218934911,-427.4704142011835,419.3831360946746,2048.7159763313607,-46.337278106508876,20.46301775147929,-20.45266272189349
578.0,-97682.00591715977,-456.93121301775153,448.2662721893492,2048.9031065088757,-46.22263313609467,20.42603550295858,-20.414940828402365
580.0,-97683.73964497041,-486.3920118343196,477.14940828402376,2049.0902366863907,-46.107988165680474,20.38905325443787,-20.37721893491124
582.0,-97685.47337278107,-515.8528106508876,506.03254437869833,2049.277366863905,-45.99334319526627,20.35207100591716,-20.339497041420117
584.0,-97687.20710059171,-545.3136094674556,534.9156804733728,2049.46449704142,-45.87869822485207,20.31508875739645,-20.301775147928993
586.0,-97688.94082840237,-574.7744082840237,563.7988165680474,2049.651627218935,-45.76405325443787,20.27810650887574,-20.26405325443787
588.0,-97690.67455621302,-604.2352071005918,592.681952662722,2049.8387573964496,-45.649408284023664,20.24112426035503,-20.226331360946745
590.0,-97692.40828402367,-633.6960059171598,621.5650887573966,2050.0258875739646,-45.53476331360947,20.20414201183432,-20.18860946745562
592.0,-97694.14201183432,-663.1568047337279,650.4482248520711,2050.213017751479,-45.42011834319526,20.16715976331361,-20.150887573964496
594.0,-97695.87573964497,-692.6176035502959,679.3313609467457,2050.400147928994,-45.305473372781066,20.1301775147929,-20.113165680473372
596.0,-97697.60946745562,-722.0784023668639,708.2144970414201,2050.587278106509,-45.19082840236686,20.09319526627219,-20.075443786982248
598.0,-97699.34319526626,-751.5392011834319,737.0976331360947,2050.7744082840236,-45.076183431952664,20.05621301775148,-20.037721893491124
600.0,-97745.28698224852,-780.7111686390533,750.9615384615386,2050.9249260355027,-44.92307692307692,20.038091715976332,-19.999630177514792
602.0,-97877.91715976331,-779.844674556213,705.9038461538462,2050.8150887573966,-44.80769230769231,20.09467455621302,-19.99852071005917
604.0,-97966.33727810651,-779.2670118343195,675.8653846153846,2050.7418639053258,-44.730769230769226,20.132396449704142,-19.99778106508876
606.0,-98054.7573964497,-778.689349112426,645.8269230769231,2050.6686390532545,-44.65384615384615,20.170118343195266,-19.997041420118343
608.0,-98143.1775147929,-778.1116863905326,615.7884615384615,2050.5954142011833,-44.57692307692307,20.20784023668639,-19.996301775147927
610.0,-98231.59763313609,-777.5340236686391,585.75,2050.5221893491125,-44.5,20.245562130177515,-19.995562130177515
612.0,-98320.01775147929,-776.9563609467456,555.7115384615386,2050.4489644970417,-44.42307692307692,20.28328402366864,-19.994822485207102
614.0,-98408.43786982249,-776.3786982248521,525.6730769230769,2050.3757396449705,-44.34615384615385,20.321005917159763,-19.994082840236686
616.0,-98496.85798816568,-775.8010355029586,495.6346153846154,2050.3025147928993,-44.26923076923077,20.358727810650887,-19.99334319526627
618.0,-98585.27810650888,-775.2233727810651,465.59615384615387,2050.2292899408285,-44.19230769230769,20.39644970414201,-19.992603550295858
620.0,-98673.69822485207,-774.6457100591716,435.5576923076923,2050.1560650887577,-44.11538461538461,20.434171597633135,-19.991863905325445
622.0,-98762.11834319527,-774.0680473372781,405.51923076923083,2050.0828402366865,-44.03846153846154,20.47189349112426,-19.99112426035503
624.0,-98850.53846153847,-773.4903846153846,375.4807692307693,2050.0096153846152,-43.96153846153846,20.509615384615387,-19.990384615384613
626.0,-98938.95857988166,-772.9127218934912,345.44230769230774,2049.9363905325445,-43.88461538461538,20.54733727810651,-19.9896449704142
628.0,-99027.37869822486,-772.3350591715977,315.4038461538462,2049.8631656804737,-43.80769230769231,20.585059171597635,-19.98890532544379
630.0,-99115.79881656804,-771.7573964497042,285.36538461538464,2049.7899408284025,-43.730769230769226,20.62278106508876,-19.988165680473372
632.0,-99204.21893491125,-771.1797337278107,255.3269230769231,2049.716715976331,-43.65384615384615,20.660502958579883,-19.987426035502956
634.0,-99292.63905325443,-770.6020710059172,225.28846153846155,2049.6434911242604,-43.57692307692307,20.698224852071007,-19.986686390532544
636.0,-99381.05917159763,-770.0244082840237,195.25,2049.5702662721897,-43.5,20.73594674556213,-19.98594674556213
638.0,-99469.47928994083,-769.4467455621302,165.21153846153845,2049.4970414201184,-43.42307692307692,20.773668639053255,-19.985207100591715
640.0,-99557.89940828402,-768.8690828402367,135.1730769230769,2049.423816568047,-43.34615384615385,20.81139053254438,-19.9844674556213
642.0,-99646.31952662722,-768.2914201183432,105.13461538461536,2049.3505917159764,-43.26923076923077,20.849112426035504,-19.983727810650887
644.0,-99734.73964497041,-767.7137573964498,75.09615384615381,2049.2773668639056,-43.19230769230769,20.886834319526628,-19.982988165680474
646.0,-99823.15976331361,-767.1360946745563,45.05769230769238,2049.2041420118344,-43.11538461538461,20.924556213017752,-19.98224852071006
648.0,-99911.5798816568,-766.5584319526628,15.01923076923083,2049.130917159763,-43.03846153846154,20.962278106508876,-19.981508875739642
650.0,-100000.28883136094,-751.2503698224853,-30.327292899408285,2049.110576923077,-42.92418639053254,20.999630177514792,-19.961908284023668
652.0,-100001.15532544379,-707.0591715976332,-76.25147928994083,2049.269230769231,-42.81213017751479,20.99852071005917,-19.90532544378698
654.0,-100001.73298816568,-677.5983727810651,-106.86760355029587,2049.375,-42.737426035502956,20.99778106508876,-19.867603550295858
656.0,-100002.31065088758,-648.137573964497,-137.4837278106509,2049.4807692307695,-42.662721893491124,20.997041420118343,-19.829881656804734
658.0,-100002.88831360947,-618.676775147929,-168.09985207100593,2049.5865384615386,-42.588017751479285,20.996301775147927,-19.79215976331361
660.0,-100003.46597633137,-589.2159763313609,-198.71597633136096,2049.6923076923076,-42.51331360946745,20.995562130177515,-19.754437869822485
662.0,-100004.04363905326,-559.7551775147929,-229.332100591716,2049.798076923077,-42.43860946745562,20.994822485207102,-19.71671597633136
664.0,-100004.62130177514,-530.2943786982248,-259.948224852071,2049.903846153846,-42.36390532544379,20.994082840236686,-19.678994082840237
666.0,-100005.19896449705,-500.8335798816568,-290.56434911242604,2050.0096153846152,-42.28920118343195,20.99334319526627,-19.641272189349113
668.0,-100005.77662721893,-471.37278106508876,-321.1804733727811,2050.1153846153848,-42.21449704142012,20.992603550295858,-19.60355029585799
670.0,-100006.35428994083,-441.9119822485207,-351.7965976331361,2050.221153846154,-42.139792899408285,20.991863905325445,-19.565828402366865
672.0,-100006.93195266272,-412.4511834319527,-382.41272189349115,2050.3269230769233,-42.065088757396445,20.99112426035503,-19.52810650887574
674.0,-100007.50961538462,-382.99038461538464,-413.0288461538462,2050.4326923076924,-41.99038461538461,20.990384615384613,-19.490384615384613
676.0,-100008.08727810651,-353.5295857988166,-443.6449704142012,2050.5384615384614,-41.91568047337278,20.9896449704142,-19.45266272189349
678.0,-100008.6649408284,-324.0687869822485,-474.26109467455626,2050.644230769231,-41.84097633136094,20.98890532544379,-19.414940828402365
680.0,-100009.2426035503,-294.60798816568047,-504.8772189349113,2050.75,-41.76627218934911,20.988165680473372,-19.37721893491124
682.0,-100009.82026627219,-265.1471893491124,-535.4933431952662,2050.8557692307695,-41.69156804733728,20.987426035502956,-19.339497041420117
684.0,-100010.39792899409,-235.68639053254435,-566.1094674556213,2050.9615384615386,-41.61686390532544,20.986686390532544,-19.301775147928993
686.0,-100010.97559171598,-206.2255917159763,-596.7255917159763,2051.0673076923076,-41.542159763313606,20.98594674556213,-19.26405325443787
688.0,-100011.55325443787,-176.76479289940823,-627.3417159763313,2051.173076923077,-41.467455621301774,20.985207100591715,-19.226331360946745
690.0,-100012.13091715977,-147.30399408284018,-657.9578402366864,2051.278846153846,-41.39275147928994,20.9844674556213,-19.18860946745562
692.0,-100012.70857988166,-117.84319526627212,-688.5739644970414,2051.3846153846152,-41.3180473372781,20.983727810650887,-19.150887573964496
694.0,-100013.28624260356,-88.38239644970406,-719.1900887573964,2051.4903846153848,-41.24334319526627,20.982988165680474,-19.113165680473372
696.0,-100013.86390532544,-58.921597633136116,-749.8062130177515,2051.596153846154,-41.16863905325444,20.98224852071006,-19.075443786982248
698.0,-100014.44156804735,-29.460798816568058,-780.4223372781065,2051.7019230769233,-41.0939349112426,20.981508875739642,-19.037721893491124
700.0,-100029.74963017751,0.0,-840.2104289940828,2051.623520710059,-41.03920118343195,20.961908284023668,-19.0
702.0,-100073.94082840237,0.0,-927.7263313609467,2051.0710059171597,-41.099112426035504,20.90532544378698,-19.0
704.0,-100103.40162721893,0.0,-986.0702662721893,2050.7026627218934,-41.13905325443787,20.867603550295858,-19.0
706.0,-100132.8624260355,0.0,-1044.414201183432,2050.3343195266275,-41.178994082840234,20.829881656804734,-19.0
708.0,-100162.32322485208,0.0,-1102.7581360946747,2049.965976331361,-41.2189349112426,20.79215976331361,-19.0
710.0,-100191.78402366865,0.0,-1161.1020710059172,2049.597633136095,-41.25887573964497,20.754437869822485,-19.0
712.0,-100221.24482248521,0.0,-1219.4460059171597,2049.2292899408285,-41.298816568047336,20.71671597633136,-19.0
714.0,-100250.70562130178,0.0,-1277.7899408284025,2048.860946745562,-41.3387573964497,20.678994082840237,-19.0
716.0,-100280.16642011834,0.0,-1336.133875739645,2048.492603550296,-41.378698224852066,20.641272189349113,-19.0
718.0,-100309.62721893491,0.0,-1394.4778106508875,2048.1242603550295,-41.41863905325444,20.60355029585799,-19.0
720.0,-100339.08801775148,0.0,-1452.8217455621302,2047.7559171597634,-41.4585798816568,20.565828402366865,-19.0
722.0,-100368.54881656804,0.0,-1511.1656804733727,2047.387573964497,-41.49852071005917,20.52810650887574,-19.0
724.0,-100398.00961538462,0.0,-1569.5096153846152,2047.019230769231,-41.53846153846153,20.490384615384613,-19.0
726.0,-100427.47041420119,0.0,-1627.853550295858,2046.6508875739646,-41.578402366863905,20.45266272189349,-19.0
728.0,-100456.93121301776,0.0,-1686.1974852071005,2046.2825443786983,-41.61834319526627,20.414940828402365,-19.0
730.0,-100486.39201183432,0.0,-1744.541420118343,2045.914201183432,-41.658284023668635,20.37721893491124,-19.0
732.0,-100515.85281065089,0.0,-1802.8853550295858,2045.5458579881658,-41.69822485207101,20.339497041420117,-19.0
734.0,-100545.31360946746,0.0,-1861.2292899408285,2045.1775147928995,-41.73816568047337,20.301775147928993,-19.0
736.0,-100574.77440828402,0.0,-1919.5732248520708,2044.8091715976332,-41.77810650887574,20.26405325443787,-19.0
738.0,-100604.23520710059,0.0,-1977.9171597633135,2044.4408284023668,-41.8180473372781,20.226331360946745,-19.0
740.0,-100633.69600591715,0.0,-2036.2610946745563,2044.0724852071007,-41.857988165680474,20.18860946745562,-19.0
742.0,-100663.15680473374,0.0,-2094.6050295857985,2043.7041420118344,-41.89792899408284,20.150887573964496,-19.0
744.0,-100692.6176035503,0.0,-2152.9489644970413,2043.335798816568,-41.937869822485204,20.113165680473372,-19.0
746.0,-100722.07840236687,0.0,-2211.292899408284,2042.9674556213017,-41.97781065088757,20.075443786982248,-19.0
748.0,-100751.53920118343,0.0,-2269.6368343195263,2042.5991124260356,-42.01775147928994,20.037721893491124,-19.0
750.0,-100781.57766272189,-0.28883136094674555,-2313.828402366864,2042.4541420118344,-42.11538461538461,20.0,-19.0
752.0,-100783.31065088758,-1.1553254437869822,-2271.371301775148,2043.1242603550297,-42.28846153846154,20.0,-19.0
754.0,-100784.46597633137,-1.7329881656804733,-2243.066568047337,2043.5710059171597,-42.40384615384615,20.0,-19.0
756.0,-100785.62130177516,-2.3106508875739644,-2214.7618343195263,2044.01775147929,-42.51923076923077,20.0,-19.0
758.0,-100786.77662721893,-2.8883136094674553,-2186.457100591716,2044.4644970414201,-42.63461538461539,20.0,-19.0
760.0,-100787.93195266272,-3.4659763313609466,-2158.152366863905,2044.9112426035504,-42.75,20.0,-19.0
762.0,-100789.08727810651,-4.043639053254438,-2129.8476331360944,2045.3579881656806,-42.86538461538461,20.0,-19.0
764.0,-100790.2426035503,-4.621301775147929,-2101.542899408284,2045.8047337278106,-42.980769230769226,20.0,-19.0
766.0,-100791.39792899409,-5.19896449704142,-2073.2381656804732,2046.2514792899408,-43.09615384615385,20.0,-19.0
768.0,-100792.55325443788,-5.776627218934911,-2044.9334319526627,2046.698224852071,-43.21153846153846,20.0,-19.0
770.0,-100793.70857988167,-6.354289940828402,-2016.628698224852,2047.1449704142012,-43.32692307692307,20.0,-19.0
772.0,-100794.86390532546,-6.931952662721893,-1988.3239644970413,2047.5917159763314,-43.44230769230769,20.0,-19.0
774.0,-100796.01923076925,-7.509615384615384,-1960.0192307692307,2048.0384615384614,-43.55769230769231,20.0,-19.0
776.0,-100797.17455621302,-8.087278106508876,-1931.7144970414201,2048.4852071005917,-43.67307692307692,20.0,-19.0
778.0,-100798.32988165681,-8.664940828402367,-1903.4097633136093,2048.931952662722,-43.78846153846154,20.0,-19.0
780.0,-100799.4852071006,-9.242603550295858,-1875.1050295857988,2049.378698224852,-43.90384615384615,20.0,-19.0
782.0,-100800.64053254439,-9.820266272189349,-1846.8002958579882,2049.8254437869823,-44.01923076923077,20.0,-19.0
784.0,-100801.79585798818,-10.39792899408284,-1818.4955621301774,2050.2721893491125,-44.13461538461539,20.0,-19.0
786.0,-100802.95118343197,-10.97559171597633,-1790.1908284023668,2050.7189349112427,-44.25,20.0,-19.0
788.0,-100804.10650887576,-11.553254437869821,-1761.8860946745563,2051.165680473373,-44.36538461538461,20.0,-19.0
790.0,-100805.26183431955,-12.130917159763314,-1733.5813609467455,2051.6124260355027,-44.480769230769226,20.0,-19.0
792.0,-100806.41715976332,-12.708579881656805,-1705.276627218935,2052.059171597633,-44.59615384615385,20.0,-19.0
794.0,-100807.57248520711,-13.286242603550296,-1676.9718934911243,2052.505917159763,-44.71153846153846,20.0,-19.0
796.0,-100808.7278106509,-13.863905325443787,-1648.6671597633135,2052.9526627218934,-44.82692307692307,20.0,-19.0
798.0,-100809.8831360947,-14.441568047337277,-1620.362426035503,2053.3994082840236,-44.94230769230769,20.0,-19.0
800.0,-100840.49926035505,-29.46079881656805,-1621.248150887574,2053.6937869822486,-45.11612426035503,19.999630177514792,-19.0
802.0,-100928.88165680475,-72.7855029585799,-1708.819526627219,2053.2366863905327,-45.2914201183432,19.99852071005917,-19.0
804.0,-100987.8032544379,-101.66863905325445,-1767.2004437869823,2052.931952662722,-45.408284023668635,19.99778106508876,-19.0
806.0,-101046.72485207103,-130.55177514792902,-1825.5813609467457,2052.627218934911,-45.52514792899408,19.997041420118343,-19.0
808.0,-101105.64644970416,-159.4349112426036,-1883.962278106509,2052.3224852071007,-45.642011834319526,19.996301775147927,-19.0
810.0,-101164.56804733729,-188.31804733727813,-1942.3431952662722,2052.01775147929,-45.75887573964497,19.995562130177515,-19.0
812.0,-101223.48964497042,-217.2011834319527,-2000.7241124260356,2051.713017751479,-45.875739644970416,19.994822485207102,-19.0
814.0,-101282.41124260357,-246.08431952662727,-2059.105029585799,2051.408284023669,-45.992603550295854,19.994082840236686,-19.0
816.0,-101341.3328402367,-274.96745562130184,-2117.485946745562,2051.103550295858,-46.1094674556213,19.99334319526627,-19.0
818.0,-101400.25443786984,-303.8505917159764,-2175.8668639053258,2050.798816568047,-46.226331360946745,19.992603550295858,-19.0
820.0,-101459.17603550297,-332.733727810651,-2234.247781065089,2050.494082840237,-46.34319526627219,19.991863905325445,-19.0
822.0,-101518.0976331361,-361.6168639053255,-2292.628698224852,2050.189349112426,-46.460059171597635,19.99112426035503,-19.0
824.0,-101577.01923076925,-390.50000000000006,-2351.0096153846152,2049.8846153846152,-46.57692307692308,19.990384615384613,-19.0
826.0,-101635.94082840238,-419.3831360946746,-2409.390532544379,2049.579881656805,-46.69378698224852,19.9896449704142,-19.0
828.0,-101694.86242603551,-448.2662721893492,-2467.771449704142,2049.275147928994,-46.81065088757396,19.98890532544379,-19.0
830.0,-101753.78402366865,-477.14940828402376,-2526.1523668639056,2048.9704142011833,-46.92751479289941,19.988165680473372,-19.0
832.0,-101812.70562130178,-506.03254437869833,-2584.533284023669,2048.665680473373,-47.044378698224854,19.987426035502956,-19.0
834.0,-101871.62721893491,-534.9156804733728,-2642.914201183432,2048.360946745562,-47.1612426035503,19.986686390532544,-19.0
836.0,-101930.54881656806,-563.7988165680474,-2701.295118343195,2048.0562130177514,-47.27810650887574,19.98594674556213,-19.0
838.0,-101989.47041420119,-592.681952662722,-2759.6760355029587,2047.7514792899408,-47.39497041420118,19.985207100591715,-19.0
840.0,-102048.39201183432,-621.5650887573966,-2818.056952662722,2047.4467455621302,-47.51183431952663,19.9844674556213,-19.0
842.0,-102107.31360946746,-650.4482248520711,-2876.4378698224855,2047.1420118343194,-47.62869822485207,19.983727810650887,-19.0
844.0,-102166.23520710059,-679.3313609467457,-2934.8187869822486,2046.8372781065088,-47.74556213017752,19.982988165680474,-19.0
846.0,-102225.15680473374,-708.2144970414201,-2993.199704142012,2046.5325443786983,-47.862426035502956,19.98224852071006,-19.0
848.0,-102284.07840236687,-737.0976331360947,-3051.580621301775,2046.2278106508875,-47.9792899408284,19.981508875739642,-19.0
850.0,-102343.28920118343,-751.2503698224853,-3095.212278106509,2045.8513313609467,-48.19193786982248,19.962278106508876,-19.0
852.0,-102344.15680473374,-707.0591715976332,-3050.96449704142,2045.6360946745563,-48.4792899408284,19.90680473372781,-19.0
854.0,-102344.73520710059,-677.5983727810651,-3021.465976331361,2045.4926035502958,-48.67085798816568,19.8698224852071,-19.0
856.0,-102345.31360946746,-648.137573964497,-2991.9674556213017,2045.3491124260356,-48.862426035502956,19.83284023668639,-19.0
858.0,-102345.89201183432,-618.676775147929,-2962.4689349112427,2045.2056213017752,-49.05399408284024,19.79585798816568,-19.0
860.0,-102346.47041420119,-589.2159763313609,-2932.9704142011833,2045.062130177515,-49.24556213017752,19.75887573964497,-19.0
862.0,-102347.04881656806,-559.7551775147929,-2903.4718934911243,2044.9186390532545,-49.437130177514796,19.72189349112426,-19.0
864.0,-102347.62721893491,-530.2943786982248,-2873.9733727810653,2044.775147928994,-49.62869822485207,19.68491124260355,-19.0
866.0,-102348.20562130178,-500.8335798816568,-2844.474852071006,2044.631656804734,-49.82026627218935,19.64792899408284,-19.0
868.0,-102348.78402366865,-471.37278106508876,-2814.976331360947,2044.4881656804735,-50.01183431952663,19.61094674556213,-19.0
870.0,-102349.36242603551,-441.9119822485207,-2785.4778106508875,2044.3446745562132,-50.203402366863905,19.57396449704142,-19.0
872.0,-102349.94082840238,-412.4511834319527,-2755.9792899408285,2044.2011834319528,-50.39497041420118,19.53698224852071,-19.0
874.0,-102350.51923076925,-382.99038461538464,-2726.4807692307695,2044.0576923076924,-50.58653846153847,19.5,-19.0
876.0,-102351.0976331361,-353.5295857988166,-2696.98224852071,2043.9142011834322,-50.778106508875744,19.46301775147929,-19.0
878.0,-102351.67603550297,-324.0687869822485,-2667.483727810651,2043.7707100591717,-50.96967455621302,19.42603550295858,-19.0
880.0,-102352.25443786984,-294.60798816568047,-2637.9852071005917,2043.6272189349115,-51.1612426035503,19.38905325443787,-19.0
882.0,-102352.8328402367,-265.1471893491124,-2608.4866863905327,2043.483727810651,-51.35281065088758,19.35207100591716,-19.0
884.0,-102353.41124260357,-235.68639053254435,-2578.9881656804737,2043.3402366863909,-51.544378698224854,19.31508875739645,-19.0
886.0,-102353.98964497042,-206.2255917159763,-2549.4896449704142,2043.1967455621304,-51.73594674556213,19.27810650887574,-19.0
888.0,-102354.56804733729,-176.76479289940823,-2519.991124260355,2043.05325443787,-51.92751479289941,19.24112426035503,-19.0
890.0,-102355.14644970416,-147.30399408284018,-2490.492603550296,2042.9097633136098,-52.119082840236686,19.20414201183432,-19.0
892.0,-102355.72485207103,-117.84319526627212,-2460.994082840237,2042.7662721893494,-52.31065088757397,19.16715976331361,-19.0
894.0,-102356.3032544379,-88.38239644970406,-2431.4955621301774,2042.6227810650892,-52.50221893491125,19.1301775147929,-19.0
896.0,-102356.88165680475,-58.921597633136116,-2401.9970414201184,2042.4792899408287,-52.693786982248525,19.09319526627219,-19.0
898.0,-102357.46005917162,-29.460798816568058,-2372.498520710059,2042.3357988165685,-52.8853550295858,19.05621301775148,-19.0
900.0,-102372.49852071007,-0.28883136094674555,-2342.7111686390535,2042.3805473372786,-53.154215976331365,19.038091715976332,-19.000369822485208
902.0,-102415.87869822487,-1.1553254437869822,-2341.844674556213,2042.9452662721897,-53.38609467455622,19.09467455621302,-19.00147928994083
904.0,-102444.79881656806,-1.7329881656804733,-2341.2670118343194,2043.3217455621304,-53.54068047337278,19.132396449704142,-19.00221893491124
906.0,-102473.71893491126,-2.3106508875739644,-2340.689349112426,2043.6982248520712,-53.69526627218935,19.170118343195266,-19.002958579881657
908.0,-102502.63905325445,-2.8883136094674553,-2340.1116863905327,2044.074704142012,-53.84985207100592,19.20784023668639,-19.003698224852073
910.0,-102531.55917159765,-3.4659763313609466,-2339.534023668639,2044.4511834319528,-54.00443786982249,19.245562130177515,-19.004437869822485
912.0,-102560.47928994083,-4.043639053254438,-2338.9563609467455,2044.8276627218938,-54.15902366863906,19.28328402366864,-19.005177514792898
914.0,-102589.39940828404,-4.621301775147929,-2338.378698224852,2045.2041420118346,-54.31360946745562,19.321005917159763,-19.005917159763314
916.0,-102618.31952662722,-5.19896449704142,-2337.8010355029587,2045.5806213017754,-54.46819526627219,19.358727810650887,-19.00665680473373
918.0,-102647.23964497042,-5.776627218934911,-2337.223372781065,2045.9571005917162,-54.62278106508876,19.39644970414201,-19.007396449704142
920.0,-102676.15976331361,-6.354289940828402,-2336.6457100591715,2046.333579881657,-54.77736686390533,19.434171597633135,-19.008136094674555
922.0,-102705.07988165681,-6.931952662721893,-2336.068047337278,2046.7100591715978,-54.9319526627219,19.47189349112426,-19.00887573964497
924.0,-102734.0,-7.509615384615384,-2335.4903846153848,2047.0865384615386,-55.08653846153847,19.509615384615387,-19.009615384615387
926.0,-102762.92011834319,-8.087278106508876,-2334.912721893491,2047.4630177514794,-55.24112426035503,19.54733727810651,-19.0103550295858
928.0,-102791.84023668639,-8.664940828402367,-2334.3350591715975,2047.8394970414201,-55.3957100591716,19.585059171597635,-19.01109467455621
930.0,-102820.76035502958,-9.242603550295858,-2333.757396449704,2048.215976331361,-55.55029585798817,19.62278106508876,-19.011834319526628
932.0,-102849.68047337278,-9.820266272189349,-2333.1797337278103,2048.5924556213017,-55.70488165680474,19.660502958579883,-19.012573964497044
934.0,-102878.60059171596,-10.39792899408284,-2332.602071005917,2048.9689349112427,-55.859467455621306,19.698224852071007,-19.013313609467456
936.0,-102907.52071005917,-10.97559171597633,-2332.0244082840236,2049.3454142011833,-56.01405325443787,19.73594674556213,-19.01405325443787
938.0,-102936.44082840235,-11.553254437869821,-2331.44674556213,2049.7218934911243,-56.16863905325444,19.773668639053255,-19.014792899408285
940.0,-102965.36094674555,-12.130917159763314,-2330.8690828402364,2050.098372781065,-56.32322485207101,19.81139053254438,-19.0155325443787
942.0,-102994.28106508874,-12.708579881656805,-2330.291420118343,2050.474852071006,-56.47781065088758,19.849112426035504,-19.016272189349113
944.0,-103023.20118343194,-13.286242603550296,-2329.7137573964496,2050.8513313609465,-56.632396449704146,19.886834319526628,-19.017011834319526
946.0,-103052.12130177513,-13.863905325443787,-2329.1360946745563,2051.2278106508875,-56.78698224852071,19.924556213017752,-19.01775147928994
948.0,-103081.04142011833,-14.441568047337277,-2328.5584319526624,2051.604289940828,-56.94156804733728,19.962278106508876,-19.018491124260358
950.0,-103095.21227810648,-29.749630177514796,-2313.539201183432,2051.9622781065086,-57.19230769230769,20.000369822485208,-19.038091715976332
952.0,-103050.9644970414,-73.94082840236688,-2270.21449704142,2051.9068047337278,-57.48076923076923,20.00147928994083,-19.09467455621302
954.0,-103021.46597633134,-103.40162721893492,-2241.3313609467455,2051.869822485207,-57.67307692307693,20.00221893491124,-19.132396449704142
956.0,-102991.96745562128,-132.86242603550298,-2212.448224852071,2051.832840236686,-57.86538461538461,20.002958579881657,-19.170118343195266
958.0,-102962.46893491123,-162.32322485207104,-2183.565088757396,2051.7958579881656,-58.05769230769231,20.003698224852073,-19.20784023668639
960.0,-102932.97041420116,-191.78402366863907,-2154.681952662722,2051.7588757396447,-58.25,20.004437869822485,-19.245562130177515
962.0,-102903.4718934911,-221.24482248520712,-2125.798816568047,2051.721893491124,-58.44230769230769,20.005177514792898,-19.28328402366864
964.0,-102873.97337278105,-250.70562130177518,-2096.9156804733725,2051.6849112426034,-58.63461538461539,20.005917159763314,-19.321005917159763
966.0,-102844.474852071,-280.16642011834324,-2068.0325443786983,2051.6479289940826,-58.82692307692308,20.00665680473373,-19.358727810650887
968.0,-102814.97633136093,-309.6272189349113,-2039.1494082840236,2051.6109467455617,-59.01923076923077,20.007396449704142,-19.39644970414201
970.0,-102785.47781065087,-339.08801775147936,-2010.266272189349,2051.5739644970413,-59.21153846153846,20.008136094674555,-19.434171597633135
972.0,-102755.97928994082,-368.54881656804736,-1981.3831360946745,2051.5369822485204,-59.40384615384615,20.00887573964497,-19.47189349112426
974.0,-102726.48076923075,-398.0096153846154,-1952.5,2051.5,-59.59615384615385,20.009615384615387,-19.509615384615387
976.0,-102696.9822485207,-427.4704142011835,-1923.6168639053253,2051.463017751479,-59.78846153846154,20.0103550295858,-19.54733727810651
978.0,-102667.48372781064,-456.93121301775153,-1894.7337278106509,2051.4260355029583,-59.98076923076923,20.01109467455621,-19.585059171597635
980.0,-102637.98520710059,-486.3920118343196,-1865.8505917159762,2051.389053254438,-60.17307692307693,20.011834319526628,-19.62278106508876
982.0,-102608.48668639052,-515.8528106508876,-1836.9674556213017,2051.352071005917,-60.36538461538461,20.012573964497044,-19.660502958579883
984.0,-102578.98816568046,-545.3136094674556,-1808.084319526627,2051.315088757396,-60.55769230769231,20.013313609467456,-19.698224852071007
986.0,-102549.48964497041,-574.7744082840237,-1779.2011834319526,2051.2781065088757,-60.75,20.01405325443787,-19.73594674556213
988.0,-102519.99112426036,-604.2352071005918,-1750.3180473372781,2051.241124260355,-60.94230769230769,20.014792899408285,-19.773668639053255
990.0,-102490.49260355029,-633.6960059171598,-1721.4349112426034,2051.204142011834,-61.13461538461539,20.0155325443787,-19.81139053254438
992.0,-102460.99408284023,-663.1568047337279,-1692.5517751479288,2051.1671597633135,-61.32692307692308,20.016272189349113,-19.849112426035504
994.0,-102431.49556213018,-692.6176035502959,-1663.6686390532545,2051.1301775147926,-61.519230769230774,20.017011834319526,-19.886834319526628
996.0,-102401.99704142012,-722.0784023668639,-1634.7855029585799,2051.093195266272,-61.71153846153846,20.01775147928994,-19.924556213017752
998.0,-102372.49852071005,-751.5392011834319,-1605.9023668639052,2051.0562130177514,-61.90384615384615,20.018491124260358,-19.962278106508876
1000.0,-102342.71116863906,-781.0,-1591.460798816568,2051.03550295858,-62.19193786982248,20.038091715976332,-20.000739644970416
1002.0,-102341.84467455621,-781.0,-1634.7855029585799,2051.084319526627,-62.4792899408284,20.09467455621302,-20.002958579881657
1004.0,-102341.26701183432,-781.0,-1663.6686390532543,2051.1168639053253,-62.67085798816568,20.132396449704142,-20.004437869822485
1006.0,-102340.68934911242,-781.0,-1692.551775147929,2051.1494082840236,-62.862426035502956,20.170118343195266,-20.005917159763314
1008.0,-102340.11168639053,-781.0,-1721.4349112426034,2051.181952662722,-63.05399408284024,20.20784023668639,-20.007396449704142
1010.0,-102339.53402366863,-781.0,-1750.3180473372781,2051.21449704142,-63.24556213017752,20.245562130177515,-20.00887573964497
1012.0,-102338.95636094674,-781.0,-1779.2011834319526,2051.247041420118,-63.437130177514796,20.28328402366864,-20.0103550295858
1014.0,-102338.37869822486,-781.0,-1808.084319526627,2051.2795857988162,-63.62869822485207,20.321005917159763,-20.011834319526628
1016.0,-102337.80103550295,-781.0,-1836.9674556213017,2051.3121301775145,-63.82026627218935,20.358727810650887,-20.013313609467456
1018.0,-102337.22337278107,-781.0,-1865.8505917159762,2051.344674556213,-64.01183431952663,20.39644970414201,-20.014792899408285
1020.0,-102336.64571005917,-781.0,-1894.7337278106509,2051.377218934911,-64.20340236686391,20.434171597633135,-20.016272189349113
1022.0,-102336.06804733728,-781.0,-1923.6168639053253,2051.4097633136093,-64.39497041420118,20.47189349112426,-20.01775147928994
1024.0,-102335.49038461538,-781.0,-1952.5,2051.4423076923076,-64.58653846153847,20.509615384615387,-20.01923076923077
1026.0,-102334.91272189349,-781.0,-1981.3831360946745,2051.474852071006,-64.77810650887574,20.54733727810651,-20.0207100591716
1028.0,-102334.3350591716,-781.0,-2010.266272189349,2051.507396449704,-64.96967455621302,20.585059171597635,-20.022189349112427
1030.0,-102333.7573964497,-781.0,-2039.1494082840236,2051.5399408284025,-65.16124260355029,20.62278106508876,-20.023668639053255
1032.0,-102333.17973372781,-781.0,-2068.0325443786983,2051.5724852071007,-65.35281065088758,20.660502958579883,-20.025147928994084
1034.0,-102332.60207100591,-781.0,-2096.9156804733725,2051.605029585799,-65.54437869822486,20.698224852071007,-20.026627218934912
1036.0,-102332.02440828402,-781.0,-2125.798816568047,2051.6375739644973,-65.73594674556213,20.73594674556213,-20.02810650887574
1038.0,-102331.44674556213,-781.0,-2154.681952662722,2051.670118343195,-65.92751479289942,20.773668639053255,-20.02958579881657
1040.0,-102330.86908284023,-781.0,-2183.5650887573966,2051.7026627218934,-66.11908284023669,20.81139053254438,-20.031065088757398
1042.0,-102330.29142011834,-781.0,-2212.448224852071,2051.7352071005917,-66.31065088757397,20.849112426035504,-20.032544378698226
1044.0,-102329.71375739644,-781.0,-2241.3313609467455,2051.76775147929,-66.50221893491124,20.886834319526628,-20.034023668639055
1046.0,-102329.13609467456,-781.0,-2270.21449704142,2051.800295857988,-66.69378698224853,20.924556213017752,-20.035502958579883
1048.0,-102328.55843195265,-781.0,-2299.0976331360944,2051.8328402366865,-66.8853550295858,20.962278106508876,-20.03698224852071
1050.0,-102313.25036982249,-781.5776627218935,-2313.250369822485,2051.733357988166,-67.15384615384616,21.000369822485208,-20.076183431952664
1052.0,-102269.05917159763,-783.310650887574,-2269.059171597633,2051.337278106509,-67.38461538461539,21.00147928994083,-20.189349112426036
1054.0,-102239.59837278107,-784.4659763313609,-2239.598372781065,2051.0732248520712,-67.53846153846155,21.00221893491124,-20.264792899408285
1056.0,-102210.1375739645,-785.6213017751479,-2210.137573964497,2050.8091715976334,-67.6923076923077,21.002958579881657,-20.340236686390533
1058.0,-102180.67677514792,-786.7766272189349,-2180.6767751479288,2050.5451183431956,-67.84615384615385,21.003698224852073,-20.41568047337278
1060.0,-102151.21597633135,-787.9319526627219,-2151.2159763313607,2050.2810650887577,-68.0,21.004437869822485,-20.49112426035503
1062.0,-102121.75517751479,-789.0872781065088,-2121.7551775147926,2050.0170118343194,-68.15384615384616,21.005177514792898,-20.56656804733728
1064.0,-102092.29437869822,-790.2426035502958,-2092.2943786982246,2049.7529585798816,-68.3076923076923,21.005917159763314,-20.64201183431953
1066.0,-102062.83357988166,-791.3979289940828,-2062.8335798816565,2049.4889053254437,-68.46153846153847,21.00665680473373,-20.717455621301777
1068.0,-102033.37278106509,-792.5532544378698,-2033.3727810650887,2049.224852071006,-68.61538461538461,21.007396449704142,-20.792899408284025
1070.0,-102003.91198224852,-793.7085798816568,-2003.9119822485206,2048.960798816568,-68.76923076923077,21.008136094674555,-20.868343195266274
1072.0,-101974.45118343196,-794.8639053254437,-1974.4511834319526,2048.69674556213,-68.92307692307692,21.00887573964497,-20.943786982248522
1074.0,-101944.99038461538,-796.0192307692307,-1944.9903846153845,2048.4326923076924,-69.07692307692308,21.009615384615387,-21.01923076923077
1076.0,-101915.52958579881,-797.1745562130178,-1915.5295857988165,2048.1686390532545,-69.23076923076924,21.0103550295858,-21.09467455621302
1078.0,-101886.06878698224,-798.3298816568048,-1886.0687869822484,2047.9045857988167,-69.38461538461539,21.01109467455621,-21.170118343195266
1080.0,-101856.60798816568,-799.4852071005918,-1856.6079881656804,2047.6405325443789,-69.53846153846155,21.011834319526628,-21.245562130177515
1082.0,-101827.14718934911,-800.6405325443787,-1827.1471893491123,2047.3764792899408,-69.6923076923077,21.012573964497044,-21.321005917159763
1084.0,-101797.68639053254,-801.7958579881657,-1797.6863905325445,2047.112426035503,-69.84615384615385,21.013313609467456,-21.39644970414201
1086.0,-101768.22559171598,-802.9511834319527,-1768.2255917159764,2046.848372781065,-70.0,21.01405325443787,-21.471893491124263
1088.0,-101738.76479289941,-804.1065088757397,-1738.7647928994083,2046.5843195266273,-70.15384615384616,21.014792899408285,-21.54733727810651
1090.0,-101709.30399408285,-805.2618343195267,-1709.3039940828403,2046.3202662721894,-70.3076923076923,21.0155325443787,-21.62278106508876
1092.0,-101679.84319526626,-806.4171597633136,-1679.8431952662722,2046.0562130177516,-70.46153846153847,21.016272189349113,-21.698224852071007
1094.0,-101650.3823964497,-807.5724852071006,-1650.3823964497042,2045.7921597633135,-70.61538461538461,21.017011834319526,-21.773668639053255
1096.0,-101620.92159763313,-808.7278106508876,-1620.9215976331361,2045.5281065088757,-70.76923076923077,21.01775147928994,-21.849112426035504
1098.0,-101591.46079881657,-809.8831360946746,-1591.460798816568,2045.2640532544378,-70.92307692307692,21.018491124260358,-21.924556213017752
1100.0,-101562.0,-840.7884615384615,-1561.7111686390533,2044.9985207100592,-71.15347633136095,21.038831360946745,-22.000739644970416
1102.0,-101562.0,-930.0384615384615,-1560.844674556213,2044.9940828402366,-71.38313609467455,21.097633136094675,-22.002958579881657
1104.0,-101562.0,-989.5384615384614,-1560.2670118343194,2044.991124260355,-71.53624260355029,21.136834319526628,-22.004437869822485
1106.0,-101562.0,-1049.0384615384614,-1559.689349112426,2044.9881656804735,-71.68934911242604,21.17603550295858,-22.005917159763314
1108.0,-101562.0,-1108.5384615384614,-1559.1116863905327,2044.9852071005917,-71.84245562130178,21.215236686390533,-22.007396449704142
1110.0,-101562.0,-1168.0384615384614,-1558.534023668639,2044.98224852071,-71.99556213017752,21.254437869822485,-22.00887573964497
1112.0,-101562.0,-1227.5384615384614,-1557.9563609467455,2044.9792899408285,-72.14866863905326,21.293639053254438,-22.0103550295858
1114.0,-101562.0,-1287.0384615384614,-1557.378698224852,2044.9763313609467,-72.30177514792899,21.33284023668639,-22.011834319526628
1116.0,-101562.0,-1346.5384615384614,-1556.8010355029587,2044.973372781065,-72.45488165680473,21.372041420118343,-22.013313609467456
1118.0,-101562.0,-1406.0384615384614,-1556.223372781065,2044.9704142011835,-72.60798816568048,21.411242603550296,-22.014792899408285
1120.0,-101562.0,-1465.5384615384614,-1555.6457100591715,2044.9674556213017,-72.76109467455622,21.450443786982248,-22.016272189349113
1122.0,-101562.0,-1525.0384615384614,-1555.0680473372781,2044.9644970414201,-72.91420118343196,21.4896449704142,-22.01775147928994
1124.0,-101562.0,-1584.5384615384614,-1554.4903846153848,2044.9615384615386,-73.0673076923077,21.528846153846153,-22.01923076923077
1126.0,-101562.0,-1644.0384615384614,-1553.9127218934912,2044.9585798816568,-73.22041420118343,21.56804733727811,-22.0207100591716
1128.0,-101562.0,-1703.5384615384614,-1553.3350591715975,2044.9556213017752,-73.37352071005917,21.607248520710062,-22.022189349112427
1130.0,-101562.0,-1763.0384615384614,-1552.7573964497042,2044.9526627218934,-73.5266272189349,21.646449704142015,-22.023668639053255
1132.0,-101562.0,-1822.5384615384614,-1552.1797337278108,2044.9497041420118,-73.67973372781066,21.685650887573967,-22.025147928994084
1134.0,-101562.0,-1882.0384615384614,-1551.6020710059172,2044.9467455621302,-73.8328402366864,21.72485207100592,-22.026627218934912
1136.0,-101562.0,-1941.5384615384614,-1551.0244082840236,2044.9437869822484,-73.98594674556213,21.764053254437872,-22.02810650887574
1138.0,-101562.0,-2001.0384615384614,-1550.4467455621302,2044.9408284023668,-74.13905325443787,21.803254437869825,-22.02958579881657
1140.0,-101562.0,-2060.5384615384614,-1549.8690828402368,2044.9378698224853,-74.2921597633136,21.842455621301777,-22.031065088757398
1142.0,-101562.0,-2120.0384615384614,-1549.2914201183432,2044.9349112426034,-74.44526627218934,21.88165680473373,-22.032544378698226
1144.0,-101562.0,-2179.5384615384614,-1548.7137573964496,2044.9319526627219,-74.5983727810651,21.920857988165682,-22.034023668639055
1146.0,-101562.0,-2239.038461538461,-1548.1360946745563,2044.9289940828403,-74.75147928994083,21.960059171597635,-22.035502958579883
1148.0,-101562.0,-2298.538461538461,-1547.5584319526629,2044.9260355029585,-74.90458579881657,21.999260355029588,-22.03698224852071
1150.0,-101561.71116863906,-2372.4985207100585,-1531.6727071005917,2044.851701183432,-75.11464497041419,22.07581360946746,-22.07692307692308
1152.0,-101560.84467455621,-2415.8786982248516,-1485.7485207100592,2044.637573964497,-75.28550295857988,22.187869822485208,-22.192307692307693
1154.0,-101560.26701183432,-2444.7988165680467,-1455.1323964497042,2044.4948224852071,-75.39940828402366,22.262573964497044,-22.26923076923077
1156.0,-101559.68934911242,-2473.7189349112423,-1424.5162721893491,2044.3520710059172,-75.51331360946746,22.337278106508876,-22.346153846153847
1158.0,-101559.11168639053,-2502.6390532544374,-1393.900147928994,2044.2093195266273,-75.62721893491124,22.41198224852071,-22.423076923076923
1160.0,-101558.53402366863,-2531.5591715976325,-1363.284023668639,2044.0665680473373,-75.74112426035504,22.486686390532544,-22.5
1162.0,-101557.95636094674,-2560.479289940828,-1332.667899408284,2043.9238165680472,-75.85502958579882,22.56139053254438,-22.57692307692308
1164.0,-101557.37869822486,-2589.399408284023,-1302.051775147929,2043.7810650887573,-75.9689349112426,22.636094674556215,-22.653846153846157
1166.0,-101556.80103550295,-2618.3195266272187,-1271.435650887574,2043.6383136094673,-76.0828402366864,22.710798816568047,-22.730769230769234
1168.0,-101556.22337278107,-2647.239644970414,-1240.819526627219,2043.4955621301774,-76.19674556213018,22.785502958579883,-22.80769230769231
1170.0,-101555.64571005917,-2676.1597633136093,-1210.2034023668639,2043.3528106508875,-76.31065088757397,22.860207100591715,-22.884615384615387
1172.0,-101555.06804733728,-2705.0798816568044,-1179.5872781065088,2043.2100591715975,-76.42455621301775,22.93491124260355,-22.961538461538463
1174.0,-101554.49038461538,-2734.0,-1148.9711538461538,2043.0673076923076,-76.53846153846155,23.009615384615387,-23.03846153846154
1176.0,-101553.91272189349,-2762.920118343195,-1118.3550295857988,2042.9245562130177,-76.65236686390533,23.08431952662722,-23.115384615384617
1178.0,-101553.3350591716,-2791.84023668639,-1087.7389053254437,2042.7818047337278,-76.76627218934911,23.159023668639055,-23.192307692307693
1180.0,-101552.7573964497,-2820.7603550295858,-1057.1227810650887,2042.6390532544378,-76.8801775147929,23.233727810650887,-23.26923076923077
1182.0,-101552.17973372781,-2849.680473372781,-1026.5066568047337,2042.496301775148,-76.99408284023669,23.308431952662723,-23.346153846153847
1184.0,-101551.60207100591,-2878.6005917159764,-995.8905325443787,2042.353550295858,-77.10798816568048,23.383136094674555,-23.423076923076923
1186.0,-101551.02440828402,-2907.5207100591715,-965.2744082840237,2042.210798816568,-77.22189349112426,23.45784023668639,-23.5
1188.0,-101550.44674556213,-2936.4408284023666,-934.6582840236687,2042.068047337278,-77.33579881656804,23.532544378698226,-23.57692307692308
1190.0,-101549.86908284023,-2965.360946745562,-904.0421597633136,2041.925295857988,-77.44970414201184,23.60724852071006,-23.653846153846157
1192.0,-101549.29142011834,-2994.2810650887573,-873.4260355029586,2041.782544378698,-77.56360946745562,23.681952662721894,-23.730769230769234
1194.0,-101548.71375739644,-3023.201183431953,-842.8099112426036,2041.6397928994081,-77.67751479289942,23.756656804733726,-23.80769230769231
1196.0,-101548.13609467456,-3052.121301775148,-812.1937869822485,2041.4970414201182,-77.7914201183432,23.831360946745562,-23.884615384615387
1198.0,-101547.55843195265,-3081.041420118343,-781.5776627218935,2041.3542899408283,-77.90532544378699,23.906065088757394,-23.961538461538463
1200.0,-101532.53920118342,-3094.6346153846152,-721.5007396449704,2041.4171597633135,-78.03809171597634,23.961908284023668,-24.076553254437872
1202.0,-101489.21449704142,-3048.653846153846,-633.1183431952662,2042.0340236686388,-78.09467455621302,23.90532544378698,-24.190828402366865
1204.0,-101460.33136094674,-3018.0,-574.1967455621302,2042.4452662721892,-78.13239644970415,23.867603550295858,-24.26701183431953
1206.0,-101431.44822485207,-2987.346153846154,-515.2751479289941,2042.8565088757396,-78.17011834319527,23.829881656804734,-24.34319526627219
1208.0,-101402.5650887574,-2956.6923076923076,-456.35355029585793,2043.26775147929,-78.2078402366864,23.79215976331361,-24.419378698224854
1210.0,-101373.68195266272,-2926.038461538462,-397.43195266272187,2043.67899408284,-78.24556213017752,23.754437869822485,-24.495562130177515
1212.0,-101344.79881656804,-2895.3846153846157,-338.51035502958575,2044.0902366863904,-78.28328402366864,23.71671597633136,-24.57174556213018
1214.0,-101315.91568047336,-2864.7307692307695,-279.58875739644964,2044.5014792899408,-78.32100591715977,23.678994082840237,-24.647928994082843
1216.0,-101287.0325443787,-2834.0769230769233,-220.66715976331352,2044.9127218934912,-78.35872781065089,23.641272189349113,-24.724112426035504
1218.0,-101258.14940828402,-2803.423076923077,-161.7455621301774,2045.3239644970413,-78.39644970414201,23.60355029585799,-24.800295857988168
1220.0,-101229.26627218934,-2772.769230769231,-102.82396449704129,2045.7352071005917,-78.43417159763314,23.565828402366865,-24.87647928994083
1222.0,-101200.38313609468,-2742.1153846153848,-43.902366863905286,2046.146449704142,-78.47189349112426,23.52810650887574,-24.952662721893493
1224.0,-101171.5,-2711.4615384615386,15.01923076923083,2046.5576923076924,-78.50961538461539,23.490384615384613,-25.028846153846153
1226.0,-101142.61686390532,-2680.8076923076924,73.94082840236695,2046.9689349112425,-78.54733727810651,23.45266272189349,-25.105029585798817
1228.0,-101113.73372781066,-2650.153846153846,132.86242603550306,2047.3801775147929,-78.58505917159763,23.414940828402365,-25.18121301775148
1230.0,-101084.85059171598,-2619.5,191.78402366863918,2047.7914201183432,-78.62278106508876,23.37721893491124,-25.257396449704142
1232.0,-101055.9674556213,-2588.846153846154,250.7056213017753,2048.2026627218934,-78.66050295857988,23.339497041420117,-25.333579881656807
1234.0,-101027.08431952664,-2558.1923076923076,309.6272189349114,2048.6139053254437,-78.69822485207101,23.301775147928993,-25.409763313609467
1236.0,-100998.20118343196,-2527.538461538462,368.5488165680475,2049.025147928994,-78.73594674556213,23.26405325443787,-25.48594674556213
1238.0,-100969.31804733728,-2496.8846153846152,427.47041420118364,2049.4363905325445,-78.77366863905326,23.226331360946745,-25.562130177514796
1240.0,-100940.4349112426,-2466.2307692307695,486.39201183431976,2049.847633136095,-78.81139053254438,23.18860946745562,-25.638313609467456
1242.0,-100911.55177514793,-2435.5769230769233,545.3136094674559,2050.258875739645,-78.8491124260355,23.150887573964496,-25.71449704142012
1244.0,-100882.66863905326,-2404.923076923077,604.235207100592,2050.670118343195,-78.88683431952663,23.113165680473372,-25.79068047337278
1246.0,-100853.78550295858,-2374.269230769231,663.1568047337279,2051.0813609467455,-78.92455621301775,23.075443786982248,-25.866863905325445
1248.0,-100824.90236686391,-2343.6153846153848,722.078402366864,2051.492603550296,-78.96227810650888,23.037721893491124,-25.943047337278106
1250.0,-100809.8827662722,-2283.7895710059174,781.0,2051.810281065089,-78.99926035502958,23.000369822485208,-26.038831360946745
1252.0,-100851.47337278107,-2196.2736686390535,781.0,2051.5295857988167,-78.99704142011834,23.00147928994083,-26.097633136094675
1254.0,-100879.20044378699,-2137.929733727811,781.0,2051.3424556213017,-78.99556213017752,23.00221893491124,-26.136834319526628
1256.0,-100906.9275147929,-2079.585798816568,781.0,2051.1553254437868,-78.99408284023669,23.002958579881657,-26.17603550295858
1258.0,-100934.65458579882,-2021.2418639053255,781.0,2050.9681952662722,-78.99260355029585,23.003698224852073,-26.215236686390533
1260.0,-100962.38165680473,-1962.897928994083,781.0,2050.7810650887573,-78.99112426035502,23.004437869822485,-26.254437869822485
1262.0,-100990.10872781066,-1904.5539940828403,781.0,2050.5939349112427,-78.9896449704142,23.005177514792898,-26.293639053254438
1264.0,-101017.83579881657,-1846.2100591715975,781.0,2050.4068047337278,-78.98816568047337,23.005917159763314,-26.33284023668639
1266.0,-101045.56286982249,-1787.866124260355,781.0,2050.219674556213,-78.98668639053254,23.00665680473373,-26.372041420118343
1268.0,-101073.2899408284,-1729.5221893491125,781.0,2050.0325443786983,-78.98520710059171,23.007396449704142,-26.411242603550296
1270.0,-101101.01701183432,-1671.1782544378698,781.0,2049.8454142011833,-78.98372781065089,23.008136094674555,-26.450443786982248
1272.0,-101128.74408284023,-1612.8343195266273,781.0,2049.6582840236683,-78.98224852071006,23.00887573964497,-26.4896449704142
1274.0,-101156.47115384616,-1554.4903846153848,781.0,2049.471153846154,-78.98076923076923,23.009615384615387,-26.528846153846153
1276.0,-101184.19822485208,-1496.146449704142,781.0,2049.284023668639,-78.9792899408284,23.0103550295858,-26.56804733727811
1278.0,-101211.92529585799,-1437.8025147928993,781.0,2049.096893491124,-78.97781065088756,23.01109467455621,-26.607248520710062
1280.0,-101239.65236686391,-1379.4585798816568,781.0,2048.9097633136093,-78.97633136094674,23.011834319526628,-26.646449704142015
1282.0,-101267.37943786982,-1321.1146449704142,781.0,2048.7226331360944,-78.97485207100591,23.012573964497044,-26.685650887573967
1284.0,-101295.10650887575,-1262.7707100591715,781.0,2048.53550295858,-78.97337278106508,23.013313609467456,-26.72485207100592
1286.0,-101322.83357988166,-1204.426775147929,781.0,2048.348372781065,-78.97189349112425,23.01405325443787,-26.764053254437872
1288.0,-101350.56065088758,-1146.0828402366863,781.0,2048.16124260355,-78.97041420118343,23.014792899408285,-26.803254437869825
1290.0,-101378.28772189349,-1087.7389053254437,781.0,2047.9741124260352,-78.9689349112426,23.0155325443787,-26.842455621301777
1292.0,-101406.01479289941,-1029.394970414201,781.0,2047.7869822485204,-78.96745562130177,23.016272189349113,-26.88165680473373
1294.0,-101433.74186390532,-971.0510355029585,781.0,2047.5998520710057,-78.96597633136093,23.017011834319526,-26.920857988165682
1296.0,-101461.46893491125,-912.707100591716,781.0,2047.412721893491,-78.96449704142012,23.01775147928994,-26.960059171597635
1298.0,-101489.19600591715,-854.3631656804732,781.0,2047.225591715976,-78.96301775147928,23.018491124260358,-26.999260355029588
1300.0,-101472.71301775148,-810.4607988165681,781.2888313609467,2047.0769230769229,-78.92344674556213,23.037721893491124,-27.076553254437872
1302.0,-101340.08284023669,-853.7855029585799,782.155325443787,2047.1923076923074,-78.80917159763312,23.09319526627219,-27.190828402366865
1304.0,-101251.66272189349,-882.6686390532544,782.7329881656805,2047.2692307692305,-78.73298816568047,23.1301775147929,-27.26701183431953
1306.0,-101163.2426035503,-911.551775147929,783.310650887574,2047.3461538461536,-78.6568047337278,23.16715976331361,-27.34319526627219
1308.0,-101074.8224852071,-940.4349112426036,783.8883136094674,2047.4230769230765,-78.58062130177514,23.20414201183432,-27.419378698224854
1310.0,-100986.40236686391,-969.3180473372781,784.4659763313609,2047.4999999999995,-78.50443786982248,23.24112426035503,-27.495562130177515
1312.0,-100897.98224852071,-998.2011834319526,785.0436390532544,2047.5769230769226,-78.42825443786981,23.27810650887574,-27.57174556213018
1314.0,-100809.56213017751,-1027.0843195266273,785.6213017751479,2047.6538461538457,-78.35207100591715,23.31508875739645,-27.647928994082843
1316.0,-100721.14201183432,-1055.9674556213017,786.1989644970414,2047.7307692307688,-78.2758875739645,23.35207100591716,-27.724112426035504
1318.0,-100632.72189349112,-1084.8505917159764,786.7766272189349,2047.807692307692,-78.19970414201183,23.38905325443787,-27.800295857988168
1320.0,-100544.30177514793,-1113.7337278106509,787.3542899408284,2047.884615384615,-78.12352071005917,23.42603550295858,-27.87647928994083
1322.0,-100455.88165680473,-1142.6168639053253,787.9319526627219,2047.961538461538,-78.0473372781065,23.46301775147929,-27.952662721893493
1324.0,-100367.46153846153,-1171.5,788.5096153846154,2048.038461538461,-77.97115384615384,23.5,-28.028846153846153
1326.0,-100279.04142011834,-1200.3831360946747,789.0872781065088,2048.1153846153843,-77.89497041420118,23.53698224852071,-28.105029585798817
1328.0,-100190.62130177514,-1229.2662721893491,789.6649408284023,2048.192307692307,-77.81878698224851,23.57396449704142,-28.18121301775148
1330.0,-100102.20118343196,-1258.1494082840236,790.2426035502958,2048.2692307692305,-77.74260355029585,23.61094674556213,-28.257396449704142
1332.0,-100013.78106508875,-1287.0325443786983,790.8202662721893,2048.3461538461534,-77.66642011834318,23.64792899408284,-28.333579881656807
1334.0,-99925.36094674557,-1315.915680473373,791.3979289940828,2048.423076923076,-77.59023668639053,23.68491124260355,-28.409763313609467
1336.0,-99836.94082840237,-1344.7988165680474,791.9755917159763,2048.4999999999995,-77.51405325443787,23.72189349112426,-28.48594674556213
1338.0,-99748.52071005917,-1373.6819526627219,792.5532544378698,2048.5769230769224,-77.4378698224852,23.75887573964497,-28.562130177514796
1340.0,-99660.10059171598,-1402.5650887573966,793.1309171597633,2048.6538461538457,-77.36168639053254,23.79585798816568,-28.638313609467456
1342.0,-99571.68047337278,-1431.4482248520712,793.7085798816568,2048.7307692307686,-77.28550295857988,23.83284023668639,-28.71449704142012
1344.0,-99483.26035502959,-1460.3313609467457,794.2862426035502,2048.807692307692,-77.20931952662721,23.8698224852071,-28.79068047337278
1346.0,-99394.84023668639,-1489.2144970414201,794.8639053254437,2048.884615384615,-77.13313609467455,23.90680473372781,-28.866863905325445
1348.0,-99306.4201183432,-1518.0976331360948,795.4415680473372,2048.961538461538,-77.05695266272188,23.94378698224852,-28.943047337278106
1350.0,-99217.71116863906,-1531.9615384615386,811.0384615384614,2049.073964497041,-76.96042899408283,23.96153846153846,-29.038091715976332
1352.0,-99216.84467455621,-1486.9038461538462,856.0961538461538,2049.1804733727804,-76.89940828402366,23.903846153846153,-29.09467455621302
1354.0,-99216.26701183432,-1456.8653846153848,886.1346153846154,2049.25147928994,-76.85872781065089,23.865384615384613,-29.132396449704142
1356.0,-99215.68934911242,-1426.826923076923,916.1730769230769,2049.3224852071003,-76.8180473372781,23.826923076923077,-29.170118343195266
1358.0,-99215.11168639053,-1396.7884615384617,946.2115384615385,2049.39349112426,-76.77736686390531,23.788461538461537,-29.20784023668639
1360.0,-99214.53402366863,-1366.75,976.25,2049.4644970414197,-76.73668639053254,23.75,-29.245562130177515
1362.0,-99213.95636094674,-1336.7115384615386,1006.2884615384614,2049.5355029585794,-76.69600591715977,23.71153846153846,-29.28328402366864
1364.0,-99213.37869822486,-1306.673076923077,1036.326923076923,2049.606508875739,-76.65532544378698,23.673076923076923,-29.321005917159763
1366.0,-99212.80103550295,-1276.6346153846155,1066.3653846153845,2049.677514792899,-76.61464497041419,23.634615384615383,-29.358727810650887
1368.0,-99212.22337278107,-1246.5961538461538,1096.4038461538462,2049.748520710059,-76.57396449704142,23.596153846153847,-29.39644970414201
1370.0,-99211.64571005917,-1216.5576923076924,1126.4423076923076,2049.8195266272187,-76.53328402366864,23.557692307692307,-29.434171597633135
1372.0,-99211.06804733728,-1186.519230769231,1156.480769230769,2049.8905325443784,-76.49260355029585,23.51923076923077,-29.47189349112426
1374.0,-99210.49038461538,-1156.4807692307693,1186.5192307692307,2049.961538461538,-76.45192307692307,23.48076923076923,-29.509615384615387
1376.0,-99209.91272189349,-1126.4423076923076,1216.5576923076924,2050.032544378698,-76.41124260355029,23.44230769230769,-29.54733727810651
1378.0,-99209.3350591716,-1096.4038461538462,1246.5961538461538,2050.1035502958575,-76.37056213017752,23.403846153846153,-29.585059171597635
1380.0,-99208.7573964497,-1066.3653846153848,1276.6346153846152,2050.1745562130172,-76.32988165680473,23.365384615384613,-29.62278106508876
1382.0,-99208.17973372781,-1036.326923076923,1306.673076923077,2050.2455621301774,-76.28920118343194,23.326923076923077,-29.660502958579883
1384.0,-99207.60207100591,-1006.2884615384615,1336.7115384615386,2050.316568047337,-76.24852071005917,23.288461538461537,-29.698224852071007
1386.0,-99207.02440828402,-976.25,1366.75,2050.387573964497,-76.2078402366864,23.25,-29.73594674556213
1388.0,-99206.44674556213,-946.2115384615385,1396.7884615384614,2050.4585798816565,-76.1671597633136,23.21153846153846,-29.773668639053255
1390.0,-99205.86908284023,-916.1730769230769,1426.826923076923,2050.5295857988162,-76.12647928994082,23.173076923076923,-29.81139053254438
1392.0,-99205.29142011834,-886.1346153846154,1456.8653846153848,2050.600591715976,-76.08579881656804,23.134615384615383,-29.849112426035504
1394.0,-99204.71375739644,-856.0961538461538,1486.9038461538462,2050.671597633136,-76.04511834319527,23.096153846153847,-29.886834319526628
1396.0,-99204.13609467456,-826.0576923076924,1516.9423076923076,2050.742603550296,-76.00443786982248,23.057692307692307,-29.924556213017752
1398.0,-99203.55843195265,-796.0192307692308,1546.980769230769,2050.8136094674555,-75.9637573964497,23.01923076923077,-29.962278106508876
1400.0,-99188.25036982249,-751.5392011834319,1591.1719674556211,2050.774038461538,-75.84615384615384,22.96153846153846,-30.000369822485208
1402.0,-99144.05917159763,-708.2144970414201,1633.6301775147929,2050.4423076923076,-75.61538461538461,22.903846153846153,-30.00147928994083
1404.0,-99114.59837278107,-679.3313609467456,1661.935650887574,2050.221153846154,-75.46153846153845,22.865384615384613,-30.00221893491124
1406.0,-99085.1375739645,-650.448224852071,1690.241124260355,2050.0,-75.3076923076923,22.826923076923077,-30.002958579881657
1408.0,-99055.67677514792,-621.5650887573964,1718.5465976331361,2049.778846153846,-75.15384615384615,22.788461538461537,-30.003698224852073
1410.0,-99026.21597633135,-592.6819526627219,1746.8520710059172,2049.5576923076924,-75.0,22.75,-30.004437869822485
1412.0,-98996.75517751479,-563.7988165680474,1775.1575443786983,2049.336538461538,-74.84615384615384,22.71153846153846,-30.005177514792898
1414.0,-98967.29437869822,-534.9156804733727,1803.4630177514794,2049.1153846153843,-74.6923076923077,22.673076923076923,-30.005917159763314
1416.0,-98937.83357988166,-506.0325443786982,1831.7684911242604,2048.8942307692305,-74.53846153846153,22.634615384615383,-30.00665680473373
1418.0,-98908.37278106509,-477.14940828402365,1860.0739644970415,2048.6730769230767,-74.38461538461539,22.596153846153847,-30.007396449704142
1420.0,-98878.91198224852,-448.2662721893491,1888.3794378698226,2048.451923076923,-74.23076923076923,22.557692307692307,-30.008136094674555
1422.0,-98849.45118343196,-419.38313609467457,1916.6849112426034,2048.230769230769,-74.07692307692308,22.51923076923077,-30.00887573964497
1424.0,-98819.99038461538,-390.5,1944.9903846153848,2048.0096153846152,-73.92307692307692,22.48076923076923,-30.009615384615387
1426.0,-98790.52958579881,-361.61686390532543,1973.2958579881656,2047.7884615384614,-73.76923076923076,22.44230769230769,-30.0103550295858
1428.0,-98761.06878698224,-332.73372781065086,2001.601331360947,2047.5673076923076,-73.61538461538461,22.403846153846153,-30.01109467455621
1430.0,-98731.60798816568,-303.8505917159763,2029.9068047337278,2047.3461538461538,-73.46153846153845,22.365384615384613,-30.011834319526628
1432.0,-98702.14718934911,-274.9674556213017,2058.212278106509,2047.1249999999998,-73.3076923076923,22.326923076923077,-30.012573964497044
1434.0,-98672.68639053254,-246.08431952662716,2086.51775147929,2046.903846153846,-73.15384615384615,22.288461538461537,-30.013313609467456
1436.0,-98643.22559171598,-217.2011834319526,2114.8232248520712,2046.6826923076922,-73.0,22.25,-30.01405325443787
1438.0,-98613.76479289941,-188.31804733727802,2143.128698224852,2046.4615384615383,-72.84615384615384,22.21153846153846,-30.014792899408285
1440.0,-98584.30399408285,-159.43491124260345,2171.4341715976334,2046.2403846153845,-72.6923076923077,22.173076923076923,-30.0155325443787
1442.0,-98554.84319526626,-130.55177514792888,2199.7396449704142,2046.0192307692307,-72.53846153846153,22.134615384615383,-30.016272189349113
1444.0,-98525.3823964497,-101.66863905325431,2228.0451183431956,2045.7980769230767,-72.38461538461539,22.096153846153847,-30.017011834319526
1446.0,-98495.92159763313,-72.78550295857985,2256.3505917159764,2045.5769230769229,-72.23076923076923,22.057692307692307,-30.01775147928994
1448.0,-98466.46079881657,-43.902366863905286,2284.6560650887577,2045.355769230769,-72.07692307692308,22.01923076923077,-30.018491124260358
1450.0,-98436.71116863906,-29.749630177514796,2284.367603550296,2045.2670118343194,-71.84541420118343,21.961168639053255,-30.038091715976332
1452.0,-98435.84467455621,-73.94082840236688,2198.585798816568,2045.6642011834317,-71.61242603550295,21.902366863905325,-30.09467455621302
1454.0,-98435.26701183432,-103.40162721893492,2141.397928994083,2045.92899408284,-71.45710059171597,21.863165680473372,-30.132396449704142
1456.0,-98434.68934911242,-132.86242603550298,2084.2100591715975,2046.1937869822484,-71.30177514792899,21.82396449704142,-30.170118343195266
1458.0,-98434.11168639053,-162.32322485207104,2027.0221893491125,2046.4585798816565,-71.14644970414201,21.784763313609467,-30.20784023668639
1460.0,-98433.53402366863,-191.78402366863907,1969.8343195266273,2046.7233727810649,-70.99112426035502,21.745562130177515,-30.245562130177515
1462.0,-98432.95636094674,-221.24482248520712,1912.646449704142,2046.9881656804732,-70.83579881656804,21.706360946745562,-30.28328402366864
1464.0,-98432.37869822486,-250.70562130177518,1855.458579881657,2047.2529585798816,-70.68047337278107,21.66715976331361,-30.321005917159763
1466.0,-98431.80103550295,-280.16642011834324,1798.2707100591715,2047.5177514792897,-70.52514792899409,21.627958579881657,-30.358727810650887
1468.0,-98431.22337278107,-309.6272189349113,1741.0828402366865,2047.782544378698,-70.3698224852071,21.588757396449704,-30.39644970414201
1470.0,-98430.64571005917,-339.08801775147936,1683.8949704142012,2048.047337278106,-70.21449704142012,21.549556213017752,-30.434171597633135
1472.0,-98430.06804733728,-368.54881656804736,1626.707100591716,2048.3121301775145,-70.05917159763314,21.5103550295858,-30.47189349112426
1474.0,-98429.49038461538,-398.0096153846154,1569.519230769231,2048.576923076923,-69.90384615384616,21.471153846153847,-30.509615384615387
1476.0,-98428.91272189349,-427.4704142011835,1512.3313609467455,2048.841715976331,-69.74852071005917,21.43195266272189,-30.54733727810651
1478.0,-98428.3350591716,-456.93121301775153,1455.1434911242604,2049.1065088757396,-69.59319526627219,21.392751479289938,-30.585059171597635
1480.0,-98427.7573964497,-486.3920118343196,1397.9556213017752,2049.371301775148,-69.43786982248521,21.353550295857985,-30.62278106508876
1482.0,-98427.17973372781,-515.8528106508876,1340.76775147929,2049.636094674556,-69.28254437869822,21.314349112426033,-30.660502958579883
1484.0,-98426.60207100591,-545.3136094674556,1283.5798816568047,2049.900887573964,-69.12721893491124,21.27514792899408,-30.698224852071007
1486.0,-98426.02440828402,-574.7744082840237,1226.3920118343196,2050.1656804733725,-68.97189349112426,21.235946745562128,-30.73594674556213
1488.0,-98425.44674556213,-604.2352071005918,1169.2041420118344,2050.430473372781,-68.81656804733728,21.196745562130175,-30.773668639053255
1490.0,-98424.86908284023,-633.6960059171598,1112.0162721893491,2050.695266272189,-68.66124260355029,21.157544378698223,-30.81139053254438
1492.0,-98424.29142011834,-663.1568047337279,1054.8284023668639,2050.9600591715975,-68.50591715976331,21.11834319526627,-30.849112426035504
1494.0,-98423.71375739644,-692.6176035502959,997.6405325443786,2051.2248520710054,-68.35059171597634,21.079142011834318,-30.886834319526628
1496.0,-98423.13609467456,-722.0784023668639,940.4526627218934,2051.489644970414,-68.19526627218936,21.039940828402365,-30.924556213017752
1498.0,-98422.55843195265,-751.5392011834319,883.2647928994083,2051.754437869822,-68.03994082840237,21.000739644970412,-30.962278106508876
1500.0,-98407.53920118342,-781.0,870.2869822485208,2052.039571005917,-67.76960059171597,20.923816568047336,-31.0
1502.0,-98364.21449704142,-781.0,1002.9171597633136,2052.100591715976,-67.42455621301775,20.810650887573964,-31.0
1504.0,-98335.33136094674,-781.0,1091.3372781065088,2052.141272189349,-67.19452662721893,20.735207100591715,-31.0
1506.0,-98306.44822485207,-781.0,1179.7573964497042,2052.1819526627214,-66.96449704142012,20.659763313609467,-31.0
1508.0,-98277.5650887574,-781.0,1268.1775147928995,2052.2226331360944,-66.7344674556213,20.58431952662722,-31.0
1510.0,-98248.68195266272,-781.0,1356.5976331360948,2052.2633136094673,-66.50443786982248,20.50887573964497,-31.0
1512.0,-98219.79881656804,-781.0,1445.01775147929,2052.30399408284,-66.27440828402366,20.43343195266272,-31.0
1514.0,-98190.91568047336,-781.0,1533.4378698224853,2052.344674556213,-66.04437869822485,20.35798816568047,-31.0
1516.0,-98162.0325443787,-781.0,1621.8579881656806,2052.3853550295858,-65.81434911242604,20.282544378698223,-31.0
1518.0,-98133.14940828402,-781.0,1710.2781065088757,2052.4260355029583,-65.58431952662723,20.207100591715975,-31.0
1520.0,-98104.26627218934,-781.0,1798.698224852071,2052.466715976331,-65.35428994082841,20.131656804733726,-31.0
1522.0,-98075.38313609468,-781.0,1887.1183431952663,2052.5073964497037,-65.12426035502959,20.056213017751478,-31.0
1524.0,-98046.5,-781.0,1975.5384615384617,2052.5480769230767,-64.89423076923077,19.98076923076923,-31.0
1526.0,-98017.61686390532,-781.0,2063.958579881657,2052.5887573964496,-64.66420118343196,19.90532544378698,-31.0
1528.0,-97988.73372781066,-781.0,2152.378698224852,2052.629437869822,-64.43417159763314,19.829881656804734,-31.0
1530.0,-97959.85059171598,-781.0,2240.798816568047,2052.670118343195,-64.20414201183432,19.754437869822485,-31.0
1532.0,-97930.9674556213,-781.0,2329.2189349112427,2052.7107988165676,-63.974112426035504,19.678994082840237,-31.0
1534.0,-97902.08431952664,-781.0,2417.6390532544383,2052.7514792899406,-63.744082840236686,19.60355029585799,-31.0
1536.0,-97873.20118343196,-781.0,2506.0591715976334,2052.7921597633135,-63.51405325443787,19.528106508875737,-31.0
1538.0,-97844.31804733728,-781.0,2594.4792899408285,2052.832840236686,-63.28402366863905,19.45266272189349,-31.0
1540.0,-97815.4349112426,-781.0,2682.8994082840236,2052.873520710059,-63.053994082840234,19.37721893491124,-31.0
1542.0,-97786.55177514793,-781.0,2771.3195266272187,2052.914201183432,-62.82396449704142,19.301775147928993,-31.0
1544.0,-97757.66863905326,-781.0,2859.7396449704142,2052.9548816568044,-62.593934911242606,19.226331360946745,-31.0
1546.0,-97728.78550295858,-781.0,2948.15976331361,2052.9955621301774,-62.36390532544379,19.150887573964496,-31.0
1548.0,-97699.90236686391,-781.0,3036.579881656805,2053.03624260355,-62.13387573964497,19.075443786982248,-31.0
1550.0,-97685.46079881658,-781.0,3124.710798816568,2053.1531065088757,-61.807322485207095,19.0,-31.000369822485208
1552.0,-97728.78550295858,-781.0,3123.8431952662722,2053.3816568047337,-61.51775147928994,19.0,-31.00147928994083
1554.0,-97757.66863905326,-781.0,3123.2647928994083,2053.534023668639,-61.32470414201183,19.0,-31.00221893491124
1556.0,-97786.55177514793,-781.0,3122.6863905325445,2053.686390532544,-61.13165680473373,19.0,-31.002958579881657
1558.0,-97815.4349112426,-781.0,3122.1079881656806,2053.8387573964496,-60.93860946745562,19.0,-31.003698224852073
1560.0,-97844.31804733728,-781.0,3121.5295857988167,2053.991124260355,-60.74556213017752,19.0,-31.004437869822485
1562.0,-97873.20118343196,-781.0,3120.951183431953,2054.14349112426,-60.55251479289941,19.0,-31.005177514792898
1564.0,-97902.08431952664,-781.0,3120.372781065089,2054.295857988165,-60.3594674556213,19.0,-31.005917159763314
1566.0,-97930.9674556213,-781.0,3119.794378698225,2054.448224852071,-60.1664201183432,19.0,-31.00665680473373
1568.0,-97959.85059171598,-781.0,3119.215976331361,2054.600591715976,-59.97337278106509,19.0,-31.007396449704142
1570.0,-97988.73372781066,-781.0,3118.6375739644973,2054.752958579881,-59.780325443786985,19.0,-31.008136094674555
1572.0,-98017.61686390532,-781.0,3118.0591715976334,2054.9053254437868,-59.587278106508876,19.0,-31.00887573964497
1574.0,-98046.5,-781.0,3117.480769230769,2055.057692307692,-59.394230769230774,19.0,-31.009615384615387
1576.0,-98075.38313609468,-781.0,3116.902366863905,2055.210059171597,-59.201183431952664,19.0,-31.0103550295858
1578.0,-98104.26627218934,-781.0,3116.3239644970413,2055.3624260355027,-59.008136094674555,19.0,-31.01109467455621
1580.0,-98133.14940828402,-781.0,3115.7455621301774,2055.514792899408,-58.81508875739645,19.0,-31.011834319526628
1582.0,-98162.0325443787,-781.0,3115.1671597633135,2055.667159763313,-58.62204142011834,19.0,-31.012573964497044
1584.0,-98190.91568047336,-781.0,3114.5887573964496,2055.8195266272187,-58.42899408284024,19.0,-31.013313609467456
1586.0,-98219.79881656804,-781.0,3114.0103550295858,2055.971893491124,-58.23594674556213,19.0,-31.01405325443787
1588.0,-98248.68195266272,-781.0,3113.431952662722,2056.124260355029,-58.04289940828402,19.0,-31.014792899408285
1590.0,-98277.5650887574,-781.0,3112.853550295858,2056.276627218934,-57.84985207100592,19.0,-31.0155325443787
1592.0,-98306.44822485207,-781.0,3112.275147928994,2056.42899408284,-57.65680473372781,19.0,-31.016272189349113
1594.0,-98335.33136094674,-781.0,3111.69674556213,2056.581360946745,-57.46375739644971,19.0,-31.017011834319526
1596.0,-98364.21449704142,-781.0,3111.1183431952663,2056.73372781065,-57.2707100591716,19.0,-31.01775147928994
1598.0,-98393.09763313609,-781.0,3110.5399408284025,2056.886094674556,-57.07766272189349,19.0,-31.018491124260358
1600.0,-98407.53920118342,-781.2888313609467,3094.923446745562,2057.0750739644964,-56.769230769230774,18.999630177514792,-31.038091715976332
1602.0,-98364.21449704142,-782.155325443787,3049.8091715976334,2057.184911242603,-56.42307692307693,18.99852071005917,-31.09467455621302
1604.0,-98335.33136094674,-782.7329881656805,3019.7329881656806,2057.2581360946742,-56.19230769230769,18.99778106508876,-31.132396449704142
1606.0,-98306.44822485207,-783.310650887574,2989.6568047337278,2057.331360946745,-55.96153846153847,18.997041420118343,-31.170118343195266
1608.0,-98277.5650887574,-783.8883136094674,2959.580621301775,2057.4045857988162,-55.73076923076923,18.996301775147927,-31.20784023668639
1610.0,-98248.68195266272,-784.4659763313609,2929.5044378698226,2057.477810650887,-55.5,18.995562130177515,-31.245562130177515
1612.0,-98219.79881656804,-785.0436390532544,2899.42825443787,2057.5510355029583,-55.269230769230774,18.994822485207102,-31.28328402366864
1614.0,-98190.91568047336,-785.6213017751479,2869.352071005917,2057.6242603550295,-55.03846153846154,18.994082840236686,-31.321005917159763
1616.0,-98162.0325443787,-786.1989644970414,2839.2758875739646,2057.6974852071003,-54.80769230769231,18.99334319526627,-31.358727810650887
1618.0,-98133.14940828402,-786.7766272189349,2809.199704142012,2057.7707100591715,-54.57692307692308,18.992603550295858,-31.39644970414201
1620.0,-98104.26627218934,-787.3542899408284,2779.123520710059,2057.8439349112423,-54.34615384615385,18.991863905325445,-31.434171597633135
1622.0,-98075.38313609468,-787.9319526627219,2749.0473372781066,2057.9171597633135,-54.11538461538462,18.99112426035503,-31.47189349112426
1624.0,-98046.5,-788.5096153846154,2718.971153846154,2057.9903846153848,-53.88461538461539,18.990384615384613,-31.509615384615387
1626.0,-98017.61686390532,-789.0872781065088,2688.894970414201,2058.0636094674555,-53.65384615384615,18.9896449704142,-31.54733727810651
1628.0,-97988.73372781066,-789.6649408284023,2658.8187869822486,2058.1368343195268,-53.42307692307693,18.98890532544379,-31.585059171597635
1630.0,-97959.85059171598,-790.2426035502958,2628.742603550296,2058.2100591715975,-53.19230769230769,18.988165680473372,-31.62278106508876
1632.0,-97930.9674556213,-790.8202662721893,2598.666420118343,2058.283284023669,-52.96153846153847,18.987426035502956,-31.660502958579883
1634.0,-97902.08431952664,-791.3979289940828,2568.59023668639,2058.3565088757396,-52.73076923076923,18.986686390532544,-31.698224852071007
1636.0,-97873.20118343196,-791.9755917159763,2538.514053254438,2058.429733727811,-52.5,18.98594674556213,-31.73594674556213
1638.0,-97844.31804733728,-792.5532544378698,2508.437869822485,2058.502958579882,-52.269230769230774,18.985207100591715,-31.773668639053255
1640.0,-97815.4349112426,-793.1309171597633,2478.3616863905327,2058.576183431953,-52.03846153846154,18.9844674556213,-31.81139053254438
1642.0,-97786.55177514793,-793.7085798816568,2448.28550295858,2058.649408284024,-51.80769230769231,18.983727810650887,-31.849112426035504
1644.0,-97757.66863905326,-794.2862426035502,2418.209319526627,2058.722633136095,-51.57692307692308,18.982988165680474,-31.886834319526628
1646.0,-97728.78550295858,-794.8639053254437,2388.1331360946742,2058.795857988166,-51.34615384615385,18.98224852071006,-31.924556213017752
1648.0,-97699.90236686391,-795.4415680473372,2358.0569526627214,2058.869082840237,-51.11538461538462,18.981508875739642,-31.962278106508876
1650.0,-97685.74963017751,-810.4607988165681,2312.961538461538,2058.883136094675,-50.76997041420118,18.962278106508876,-32.0
1652.0,-97729.94082840237,-853.7855029585799,2267.903846153846,2058.7056213017754,-50.426035502958584,18.90680473372781,-32.0
1654.0,-97759.40162721893,-882.6686390532544,2237.8653846153843,2058.587278106509,-50.19674556213018,18.8698224852071,-32.0
1656.0,-97788.8624260355,-911.551775147929,2207.826923076923,2058.4689349112427,-49.967455621301774,18.83284023668639,-32.0
1658.0,-97818.32322485208,-940.4349112426036,2177.7884615384614,2058.350591715977,-49.73816568047337,18.79585798816568,-32.0
1660.0,-97847.78402366865,-969.3180473372781,2147.75,2058.2322485207105,-49.50887573964497,18.75887573964497,-32.0
1662.0,-97877.24482248521,-998.2011834319526,2117.711538461538,2058.113905325444,-49.27958579881657,18.72189349112426,-32.0
1664.0,-97906.70562130178,-1027.0843195266273,2087.6730769230767,2057.995562130178,-49.05029585798817,18.68491124260355,-32.0
1666.0,-97936.16642011834,-1055.9674556213017,2057.6346153846152,2057.8772189349115,-48.821005917159766,18.64792899408284,-32.0
1668.0,-97965.62721893491,-1084.8505917159764,2027.5961538461538,2057.758875739645,-48.59171597633136,18.61094674556213,-32.0
1670.0,-97995.08801775148,-1113.7337278106509,1997.5576923076922,2057.640532544379,-48.362426035502956,18.57396449704142,-32.0
1672.0,-98024.54881656804,-1142.6168639053253,1967.5192307692307,2057.5221893491125,-48.133136094674555,18.53698224852071,-32.0
1674.0,-98054.00961538462,-1171.5,1937.480769230769,2057.4038461538466,-47.90384615384615,18.5,-32.0
1676.0,-98083.47041420119,-1200.3831360946747,1907.4423076923076,2057.2855029585803,-47.67455621301775,18.46301775147929,-32.0
1678.0,-98112.93121301776,-1229.2662721893491,1877.4038461538462,2057.167159763314,-47.44526627218935,18.42603550295858,-32.0
1680.0,-98142.39201183432,-1258.1494082840236,1847.3653846153845,2057.0488165680476,-47.21597633136095,18.38905325443787,-32.0
1682.0,-98171.85281065089,-1287.0325443786983,1817.326923076923,2056.9304733727813,-46.98668639053254,18.35207100591716,-32.0
1684.0,-98201.31360946746,-1315.915680473373,1787.2884615384614,2056.812130177515,-46.75739644970414,18.31508875739645,-32.0
1686.0,-98230.77440828402,-1344.7988165680474,1757.25,2056.6937869822486,-46.52810650887574,18.27810650887574,-32.0
1688.0,-98260.23520710059,-1373.6819526627219,1727.2115384615386,2056.5754437869823,-46.298816568047336,18.24112426035503,-32.0
1690.0,-98289.69600591715,-1402.5650887573966,1697.173076923077,2056.457100591716,-46.069526627218934,18.20414201183432,-32.0
1692.0,-98319.15680473374,-1431.4482248520712,1667.1346153846152,2056.33875739645,-45.84023668639053,18.16715976331361,-32.0
1694.0,-98348.6176035503,-1460.3313609467457,1637.0961538461538,2056.2204142011838,-45.61094674556213,18.1301775147929,-32.0
1696.0,-98378.07840236687,-1489.2144970414201,1607.0576923076924,2056.1020710059174,-45.38165680473372,18.09319526627219,-32.0
1698.0,-98407.53920118343,-1518.0976331360948,1577.019230769231,2055.983727810651,-45.15236686390532,18.05621301775148,-32.0
1700.0,-98437.57803254438,-1531.9615384615386,1532.539201183432,2055.7348372781066,-44.84652366863905,18.038831360946745,-32.0
1702.0,-98439.31213017751,-1486.9038461538462,1489.2144970414201,2055.3431952662722,-44.61686390532544,18.097633136094675,-32.0
1704.0,-98440.46819526626,-1456.8653846153848,1460.3313609467457,2055.082100591716,-44.4637573964497,18.136834319526628,-32.0
1706.0,-98441.62426035502,-1426.826923076923,1431.448224852071,2054.8210059171597,-44.31065088757396,18.17603550295858,-32.0
1708.0,-98442.78032544379,-1396.7884615384617,1402.5650887573966,2054.5599112426034,-44.15754437869822,18.215236686390533,-32.0
1710.0,-98443.93639053254,-1366.75,1373.6819526627219,2054.298816568047,-44.00443786982248,18.254437869822485,-32.0
1712.0,-98445.0924556213,-1336.7115384615386,1344.7988165680474,2054.0377218934914,-43.851331360946745,18.293639053254438,-32.0
1714.0,-98446.24852071005,-1306.673076923077,1315.9156804733727,2053.776627218935,-43.69822485207101,18.33284023668639,-32.0
1716.0,-98447.40458579881,-1276.6346153846155,1287.0325443786983,2053.515532544379,-43.54511834319526,18.372041420118343,-32.0
1718.0,-98448.56065088756,-1246.5961538461538,1258.1494082840236,2053.2544378698226,-43.392011834319526,18.411242603550296,-32.0
1720.0,-98449.71671597632,-1216.5576923076924,1229.2662721893491,2052.9933431952663,-43.23890532544379,18.450443786982248,-32.0
1722.0,-98450.87278106507,-1186.519230769231,1200.3831360946747,2052.73224852071,-43.085798816568044,18.4896449704142,-32.0
1724.0,-98452.02884615384,-1156.4807692307693,1171.5,2052.471153846154,-42.93269230769231,18.528846153846153,-32.0
1726.0,-98453.1849112426,-1126.4423076923076,1142.6168639053253,2052.2100591715975,-42.77958579881657,18.56804733727811,-32.0
1728.0,-98454.34097633135,-1096.4038461538462,1113.7337278106509,2051.9489644970413,-42.626479289940825,18.607248520710062,-32.0
1730.0,-98455.49704142011,-1066.3653846153848,1084.8505917159764,2051.687869822485,-42.47337278106509,18.646449704142015,-32.0
1732.0,-98456.65310650886,-1036.326923076923,1055.9674556213017,2051.4267751479288,-42.32026627218935,18.685650887573967,-32.0
1734.0,-98457.80917159762,-1006.2884615384615,1027.084319526627,2051.1656804733725,-42.167159763313606,18.72485207100592,-32.0
1736.0,-98458.96523668637,-976.25,998.2011834319526,2050.9045857988162,-42.01405325443787,18.764053254437872,-32.0
1738.0,-98460.12130177513,-946.2115384615385,969.318047337278,2050.6434911242604,-41.86094674556213,18.803254437869825,-32.0
1740.0,-98461.27736686388,-916.1730769230769,940.4349112426034,2050.382396449704,-41.707840236686394,18.842455621301777,-32.0
1742.0,-98462.43343195265,-886.1346153846154,911.5517751479289,2050.121301775148,-41.55473372781065,18.88165680473373,-32.0
1744.0,-98463.58949704141,-856.0961538461538,882.6686390532543,2049.8602071005917,-41.40162721893491,18.920857988165682,-32.0
1746.0,-98464.74556213016,-826.0576923076924,853.7855029585799,2049.5991124260354,-41.248520710059175,18.960059171597635,-32.0
1748.0,-98465.90162721892,-796.0192307692308,824.9023668639053,2049.338017751479,-41.09541420118343,18.999260355029588,-32.0
1750.0,-98496.537352071,-751.8280325443787,809.8831360946745,2049.1534763313607,-40.88498520710059,19.07692307692308,-32.0
1752.0,-98584.97633136093,-709.3698224852071,851.4748520710059,2049.3831360946742,-40.71301775147929,19.192307692307693,-32.0
1754.0,-98643.93565088755,-681.064349112426,879.2026627218934,2049.53624260355,-40.59837278106509,19.26923076923077,-32.0
1756.0,-98702.89497041419,-652.758875739645,906.930473372781,2049.689349112426,-40.48372781065089,19.346153846153847,-32.0
1758.0,-98761.85428994082,-624.4534023668639,934.6582840236686,2049.8424556213017,-40.369082840236686,19.423076923076923,-32.0
1760.0,-98820.81360946744,-596.1479289940829,962.3860946745561,2049.9955621301774,-40.25443786982249,19.5,-32.0
1762.0,-98879.77292899406,-567.8424556213018,990.1139053254437,2050.148668639053,-40.139792899408285,19.57692307692308,-32.0
1764.0,-98938.7322485207,-539.5369822485208,1017.8417159763313,2050.3017751479288,-40.02514792899408,19.653846153846157,-32.0
1766.0,-98997.69156804733,-511.2315088757397,1045.569526627219,2050.4548816568044,-39.91050295857988,19.730769230769234,-32.0
1768.0,-99056.65088757395,-482.9260355029586,1073.2973372781064,2050.6079881656806,-39.79585798816568,19.80769230769231,-32.0
1770.0,-99115.61020710057,-454.6205621301776,1101.025147928994,2050.7610946745563,-39.68121301775148,19.884615384615387,-32.0
1772.0,-99174.56952662721,-426.3150887573965,1128.7529585798816,2050.914201183432,-39.56656804733728,19.961538461538463,-32.0
1774.0,-99233.52884615384,-398.0096153846154,1156.480769230769,2051.0673076923076,-39.45192307692308,20.03846153846154,-32.0
1776.0,-99292.48816568046,-369.7041420118344,1184.2085798816568,2051.2204142011833,-39.337278106508876,20.115384615384617,-32.0
1778.0,-99351.44748520709,-341.3986686390533,1211.9363905325442,2051.373520710059,-39.22263313609467,20.192307692307693,-32.0
1780.0,-99410.40680473372,-313.09319526627223,1239.664201183432,2051.5266272189347,-39.107988165680474,20.26923076923077,-32.0
1782.0,-99469.36612426036,-284.78772189349115,1267.3920118343194,2051.679733727811,-38.99334319526627,20.346153846153847,-32.0
1784.0,-99528.32544378698,-256.4822485207101,1295.119822485207,2051.8328402366865,-38.87869822485207,20.423076923076923,-32.0
1786.0,-99587.2847633136,-228.176775147929,1322.8476331360946,2051.985946745562,-38.76405325443787,20.5,-32.0
1788.0,-99646.24408284023,-199.8713017751479,1350.5754437869823,2052.139053254438,-38.649408284023664,20.57692307692308,-32.0
1790.0,-99705.20340236687,-171.56582840236695,1378.3032544378698,2052.2921597633135,-38.53476331360947,20.653846153846157,-32.0
1792.0,-99764.16272189349,-143.26035502958587,1406.0310650887573,2052.445266272189,-38.42011834319526,20.730769230769234,-32.0
1794.0,-99823.12204142011,-114.95488165680479,1433.7588757396447,2052.5983727810653,-38.305473372781066,20.80769230769231,-32.0
1796.0,-99882.08136094674,-86.6494082840237,1461.4866863905324,2052.751479289941,-38.19082840236686,20.884615384615387,-32.0
1798.0,-99941.04068047338,-58.34393491124263,1489.2144970414201,2052.9045857988167,-38.076183431952664,20.961538461538463,-32.0
1800.0,-100000.0,-59.21042899408285,1472.7511094674555,2053.106878698225,-37.92344674556213,21.077292899408285,-32.00036982248521
1802.0,-100000.0,-146.72633136094677,1340.1775147928993,2053.2544378698226,-37.80917159763313,21.193786982248522,-32.00147928994083
1804.0,-100000.0,-205.07026627218937,1251.795118343195,2053.3528106508875,-37.732988165680474,21.271449704142015,-32.00221893491124
1806.0,-100000.0,-263.414201183432,1163.412721893491,2053.451183431953,-37.65680473372781,21.349112426035504,-32.00295857988166
1808.0,-100000.0,-321.7581360946746,1075.0303254437868,2053.5495562130177,-37.580621301775146,21.426775147928996,-32.00369822485207
1810.0,-100000.0,-380.1020710059172,986.6479289940828,2053.647928994083,-37.50443786982248,21.504437869822485,-32.00443786982249
1812.0,-100000.0,-438.4460059171598,898.2655325443786,2053.746301775148,-37.42825443786982,21.582100591715978,-32.0051775147929
1814.0,-100000.0,-496.78994082840245,809.8831360946745,2053.8446745562132,-37.35207100591716,21.659763313609467,-32.005917159763314
1816.0,-100000.0,-555.1338757396451,721.5007396449703,2053.943047337278,-37.275887573964496,21.73742603550296,-32.00665680473373
1818.0,-100000.0,-613.4778106508877,633.1183431952661,2054.0414201183435,-37.19970414201183,21.81508875739645,-32.007396449704146
1820.0,-100000.0,-671.8217455621303,544.735946745562,2054.1397928994083,-37.12352071005917,21.89275147928994,-32.008136094674555
1822.0,-100000.0,-730.1656804733728,456.353550295858,2054.2381656804737,-37.047337278106504,21.97041420118343,-32.00887573964497
1824.0,-100000.0,-788.5096153846155,367.9711538461538,2054.3365384615386,-36.97115384615384,22.048076923076923,-32.00961538461539
1826.0,-100000.0,-846.8535502958581,279.58875739644964,2054.4349112426034,-36.89497041420118,22.125739644970416,-32.0103550295858
1828.0,-100000.0,-905.1974852071007,191.20636094674546,2054.533284023669,-36.81878698224852,22.203402366863905,-32.01109467455622
1830.0,-100000.0,-963.5414201183434,102.82396449704129,2054.6316568047337,-36.742603550295854,22.281065088757398,-32.01183431952663
1832.0,-100000.0,-1021.885355029586,14.441568047337114,2054.730029585799,-36.66642011834319,22.358727810650887,-32.012573964497044
1834.0,-100000.0,-1080.2292899408285,-73.94082840236706,2054.828402366864,-36.590236686390526,22.43639053254438,-32.01331360946746
1836.0,-100000.0,-1138.573224852071,-162.32322485207123,2054.926775147929,-36.51405325443787,22.51405325443787,-32.014053254437876
1838.0,-100000.0,-1196.9171597633137,-250.7056213017754,2055.025147928994,-36.437869822485204,22.59171597633136,-32.014792899408285
1840.0,-100000.0,-1255.2610946745563,-339.08801775147936,2055.1235207100594,-36.36168639053254,22.66937869822485,-32.0155325443787
