timestamp,accX,accY,accZ,pressure,gyroX,gyroY,gyroZ
0.0,-93103.23076923077,-7000.942307692308,3785.826923076923,2062.826923076923,-33.82692307692308,28.365384615384613,-14.403846153846153
2.0,-93508.92307692308,-6910.7692307692305,3425.3076923076924,2062.3076923076924,-33.30769230769231,29.46153846153846,-15.615384615384615
4.0,-93779.38461538461,-6850.653846153846,3184.9615384615386,2061.9615384615386,-32.96153846153846,30.192307692307693,-16.423076923076923
6.0,-94049.84615384616,-6790.538461538462,2944.6153846153848,2061.6153846153848,-32.61538461538461,30.923076923076923,-17.23076923076923
8.0,-94320.30769230769,-6730.423076923077,2704.2692307692305,2061.269230769231,-32.26923076923077,31.653846153846153,-18.03846153846154
10.0,-94590.76923076923,-6670.307692307692,2463.923076923077,2060.923076923077,-31.923076923076923,32.38461538461539,-18.846153846153847
12.0,-94861.23076923077,-6610.192307692308,2223.576923076923,2060.576923076923,-31.576923076923077,33.11538461538461,-19.653846153846153
14.0,-95131.69230769231,-6550.076923076923,1983.2307692307693,2060.230769230769,-31.23076923076923,33.84615384615385,-20.46153846153846
16.0,-95402.15384615384,-6489.961538461538,1742.8846153846152,2059.8846153846152,-30.884615384615383,34.57692307692308,-21.26923076923077
18.0,-95672.61538461539,-6429.846153846154,1502.5384615384614,2059.5384615384614,-30.53846153846154,35.30769230769231,-22.076923076923077
20.0,-95943.07692307692,-6369.7307692307695,1262.1923076923076,2059.1923076923076,-30.192307692307693,36.03846153846154,-22.884615384615387
22.0,-96213.53846153847,-6309.615384615385,1021.8461538461538,2058.846153846154,-29.846153846153847,36.76923076923077,-23.692307692307693
24.0,-96484.0,-6249.5,781.5,2058.5,-29.5,37.5,-24.5
26.0,-96754.46153846153,-6189.384615384615,541.1538461538462,2058.153846153846,-29.153846153846153,38.230769230769226,-25.307692307692307
28.0,-97024.92307692308,-6129.2692307692305,300.8076923076924,2057.8076923076924,-28.807692307692307,38.96153846153846,-26.115384615384613
30.0,-97295.38461538461,-6069.153846153846,60.46153846153857,2057.4615384615386,-28.46153846153846,39.69230769230769,-26.923076923076923
32.0,-97565.84615384616,-6009.038461538462,-179.88461538461524,2057.1153846153848,-28.115384615384617,40.42307692307692,-27.730769230769234
34.0,-97836.30769230769,-5948.923076923077,-420.2307692307695,2056.769230769231,-27.76923076923077,41.15384615384615,-28.53846153846154
36.0,-98106.76923076923,-5888.807692307692,-660.5769230769229,2056.423076923077,-27.423076923076923,41.88461538461539,-29.346153846153847
38.0,-98377.23076923077,-5828.692307692308,-900.9230769230771,2056.076923076923,-27.076923076923077,42.61538461538461,-30.153846153846153
40.0,-98647.69230769231,-5768.576923076923,-1141.2692307692305,2055.730769230769,-26.73076923076923,43.34615384615385,-30.961538461538463
42.0,-98918.15384615384,-5708.461538461539,-1381.6153846153848,2055.3846153846152,-26.384615384615387,44.07692307692308,-31.76923076923077
44.0,-99188.61538461539,-5648.346153846154,-1621.961538461538,2055.0384615384614,-26.03846153846154,44.80769230769231,-32.57692307692308
46.0,-99459.07692307692,-5588.2307692307695,-1862.3076923076924,2054.6923076923076,-25.692307692307693,45.53846153846153,-33.38461538461539
48.0,-99729.53846153847,-5528.115384615385,-2102.6538461538457,2054.346153846154,-25.346153846153847,46.26923076923077,-34.19230769230769
50.0,-100015.01923076923,-5452.9807692307695,-2358.0384615384614,2054.0,-25.057692307692307,47.03846153846154,-35.019230769230774
52.0,-100060.07692307692,-5407.923076923077,-2403.153846153846,2054.0,-25.23076923076923,47.15384615384615,-35.07692307692308
54.0,-100090.11538461539,-5377.884615384615,-2433.230769230769,2054.0,-25.346153846153847,47.23076923076923,-35.11538461538461
56.0,-100120.15384615384,-5347.846153846154,-2463.3076923076924,2054.0,-25.46153846153846,47.30769230769231,-35.15384615384615
58.0,-100150.19230769231,-5317.807692307692,-2493.3846153846152,2054.0,-25.576923076923077,47.38461538461539,-35.19230769230769
60.0,-100180.23076923077,-5287.7692307692305,-2523.4615384615386,2054.0,-25.692307692307693,47.46153846153846,-35.23076923076923
62.0,-100210.26923076923,-5257.7307692307695,-2553.5384615384614,2054.0,-25.807692307692307,47.53846153846154,-35.26923076923077
64.0,-100240.30769230769,-5227.692307692308,-2583.6153846153848,2054.0,-25.923076923076923,47.61538461538461,-35.30769230769231
66.0,-100270.34615384616,-5197.653846153846,-2613.6923076923076,2054.0,-26.03846153846154,47.69230769230769,-35.34615384615385
68.0,-100300.38461538461,-5167.615384615385,-2643.769230769231,2054.0,-26.153846153846153,47.76923076923077,-35.38461538461539
70.0,-100330.42307692308,-5137.576923076923,-2673.846153846154,2054.0,-26.26923076923077,47.84615384615385,-35.42307692307692
72.0,-100360.46153846153,-5107.538461538462,-2703.923076923077,2054.0,-26.384615384615383,47.92307692307692,-35.46153846153846
74.0,-100390.5,-5077.5,-2734.0,2054.0,-26.5,48.0,-35.5
76.0,-100420.53846153847,-5047.461538461538,-2764.076923076923,2054.0,-26.615384615384617,48.07692307692308,-35.53846153846154
78.0,-100450.57692307692,-5017.423076923077,-2794.153846153846,2054.0,-26.73076923076923,48.15384615384615,-35.57692307692308
80.0,-100480.61538461539,-4987.384615384615,-2824.230769230769,2054.0,-26.846153846153847,48.23076923076923,-35.61538461538461
82.0,-100510.65384615384,-4957.346153846154,-2854.3076923076924,2054.0,-26.96153846153846,48.30769230769231,-35.65384615384615
84.0,-100540.69230769231,-4927.307692307692,-2884.3846153846152,2054.0,-27.076923076923077,48.38461538461539,-35.69230769230769
86.0,-100570.73076923077,-4897.2692307692305,-2914.4615384615386,2054.0,-27.192307692307693,48.46153846153846,-35.73076923076923
88.0,-100600.76923076923,-4867.2307692307695,-2944.5384615384614,2054.0,-27.307692307692307,48.53846153846154,-35.76923076923077
90.0,-100630.80769230769,-4837.192307692308,-2974.6153846153848,2054.0,-27.423076923076923,48.61538461538461,-35.80769230769231
92.0,-100660.84615384616,-4807.153846153846,-3004.6923076923076,2054.0,-27.53846153846154,48.69230769230769,-35.84615384615385
94.0,-100690.88461538461,-4777.115384615385,-3034.7692307692305,2054.0,-27.653846153846153,48.76923076923077,-35.88461538461539
96.0,-100720.92307692308,-4747.076923076923,-3064.846153846154,2054.0,-27.76923076923077,48.84615384615385,-35.92307692307692
98.0,-100750.96153846153,-4717.038461538462,-3094.923076923077,2054.0,-27.884615384615383,48.92307692307692,-35.96153846153846
100.0,-100796.01923076923,-4702.0192307692305,-3125.0,2053.9807692307695,-28.057692307692307,48.980769230769226,-36.0
102.0,-100841.07692307692,-4747.076923076923,-3125.0,2053.923076923077,-28.23076923076923,48.92307692307692,-36.0
104.0,-100871.11538461539,-4777.115384615385,-3125.0,2053.8846153846152,-28.346153846153847,48.88461538461539,-36.0
106.0,-100901.15384615384,-4807.153846153846,-3125.0,2053.846153846154,-28.46153846153846,48.84615384615385,-36.0
108.0,-100931.19230769231,-4837.192307692308,-3125.0,2053.8076923076924,-28.576923076923077,48.80769230769231,-36.0
110.0,-100961.23076923077,-4867.2307692307695,-3125.0,2053.769230769231,-28.692307692307693,48.76923076923077,-36.0
112.0,-100991.26923076923,-4897.2692307692305,-3125.0,2053.730769230769,-28.807692307692307,48.73076923076923,-36.0
114.0,-101021.30769230769,-4927.307692307692,-3125.0,2053.6923076923076,-28.923076923076923,48.69230769230769,-36.0
116.0,-101051.34615384616,-4957.346153846154,-3125.0,2053.653846153846,-29.03846153846154,48.65384615384615,-36.0
118.0,-101081.38461538461,-4987.384615384615,-3125.0,2053.6153846153848,-29.153846153846153,48.61538461538461,-36.0
120.0,-101111.42307692308,-5017.423076923077,-3125.0,2053.576923076923,-29.26923076923077,48.57692307692308,-36.0
122.0,-101141.46153846153,-5047.461538461538,-3125.0,2053.5384615384614,-29.384615384615383,48.53846153846154,-36.0
124.0,-101171.5,-5077.5,-3125.0,2053.5,-29.5,48.5,-36.0
126.0,-101201.53846153847,-5107.538461538462,-3125.0,2053.4615384615386,-29.615384615384617,48.46153846153846,-36.0
128.0,-101231.57692307692,-5137.576923076923,-3125.0,2053.423076923077,-29.73076923076923,48.42307692307692,-36.0
130.0,-101261.61538461539,-5167.615384615385,-3125.0,2053.3846153846152,-29.846153846153847,48.38461538461539,-36.0
132.0,-101291.65384615384,-5197.653846153846,-3125.0,2053.346153846154,-29.96153846153846,48.34615384615385,-36.0
134.0,-101321.69230769231,-5227.692307692308,-3125.0,2053.3076923076924,-30.076923076923077,48.30769230769231,-36.0
136.0,-101351.73076923077,-5257.7307692307695,-3125.0,2053.269230769231,-30.192307692307693,48.26923076923077,-36.0
138.0,-101381.76923076923,-5287.7692307692305,-3125.0,2053.230769230769,-30.307692307692307,48.23076923076923,-36.0
140.0,-101411.80769230769,-5317.807692307692,-3125.0,2053.1923076923076,-30.423076923076923,48.19230769230769,-36.0
142.0,-101441.84615384616,-5347.846153846154,-3125.0,2053.153846153846,-30.53846153846154,48.15384615384615,-36.0
144.0,-101471.88461538461,-5377.884615384615,-3125.0,2053.1153846153848,-30.653846153846153,48.11538461538461,-36.0
146.0,-101501.92307692308,-5407.923076923077,-3125.0,2053.076923076923,-30.76923076923077,48.07692307692308,-36.0
148.0,-101531.96153846153,-5437.961538461538,-3125.0,2053.0384615384614,-30.884615384615383,48.03846153846154,-36.0
150.0,-101562.0,-5468.0,-3125.0,2052.8076923076924,-31.096153846153847,48.03846153846154,-35.96153846153846
152.0,-101562.0,-5468.0,-3125.0,2052.230769230769,-31.384615384615383,48.15384615384615,-35.84615384615385
154.0,-101562.0,-5468.0,-3125.0,2051.846153846154,-31.576923076923077,48.23076923076923,-35.76923076923077
156.0,-101562.0,-5468.0,-3125.0,2051.4615384615386,-31.76923076923077,48.30769230769231,-35.69230769230769
158.0,-101562.0,-5468.0,-3125.0,2051.076923076923,-31.96153846153846,48.38461538461539,-35.61538461538461
160.0,-101562.0,-5468.0,-3125.0,2050.6923076923076,-32.15384615384615,48.46153846153846,-35.53846153846154
162.0,-101562.0,-5468.0,-3125.0,2050.3076923076924,-32.34615384615385,48.53846153846154,-35.46153846153846
164.0,-101562.0,-5468.0,-3125.0,2049.923076923077,-32.53846153846154,48.61538461538461,-35.38461538461539
166.0,-101562.0,-5468.0,-3125.0,2049.5384615384614,-32.73076923076923,48.69230769230769,-35.30769230769231
168.0,-101562.0,-5468.0,-3125.0,2049.153846153846,-32.92307692307692,48.76923076923077,-35.23076923076923
170.0,-101562.0,-5468.0,-3125.0,2048.769230769231,-33.11538461538461,48.84615384615385,-35.15384615384615
172.0,-101562.0,-5468.0,-3125.0,2048.3846153846152,-33.30769230769231,48.92307692307692,-35.07692307692308
174.0,-101562.0,-5468.0,-3125.0,2048.0,-33.5,49.0,-35.0
176.0,-101562.0,-5468.0,-3125.0,2047.6153846153845,-33.69230769230769,49.07692307692308,-34.92307692307692
178.0,-101562.0,-5468.0,-3125.0,2047.2307692307693,-33.88461538461539,49.15384615384615,-34.84615384615385
180.0,-101562.0,-5468.0,-3125.0,2046.8461538461538,-34.07692307692308,49.23076923076923,-34.76923076923077
182.0,-101562.0,-5468.0,-3125.0,2046.4615384615386,-34.26923076923077,49.30769230769231,-34.69230769230769
184.0,-101562.0,-5468.0,-3125.0,2046.076923076923,-34.46153846153846,49.38461538461539,-34.61538461538461
186.0,-101562.0,-5468.0,-3125.0,2045.6923076923076,-34.65384615384615,49.46153846153846,-34.53846153846154
188.0,-101562.0,-5468.0,-3125.0,2045.3076923076924,-34.84615384615385,49.53846153846154,-34.46153846153846
190.0,-101562.0,-5468.0,-3125.0,2044.923076923077,-35.03846153846154,49.61538461538461,-34.38461538461539
192.0,-101562.0,-5468.0,-3125.0,2044.5384615384614,-35.23076923076923,49.69230769230769,-34.30769230769231
194.0,-101562.0,-5468.0,-3125.0,2044.1538461538462,-35.42307692307692,49.76923076923077,-34.23076923076923
196.0,-101562.0,-5468.0,-3125.0,2043.7692307692307,-35.61538461538461,49.84615384615385,-34.15384615384615
198.0,-101562.0,-5468.0,-3125.0,2043.3846153846155,-35.80769230769231,49.92307692307692,-34.07692307692308
200.0,-101562.0,-5468.0,-3109.9615384615386,2043.1153846153848,-36.05769230769231,50.0,-34.0
202.0,-101562.0,-5468.0,-3064.846153846154,2043.4615384615386,-36.23076923076923,50.0,-34.0
204.0,-101562.0,-5468.0,-3034.769230769231,2043.6923076923076,-36.34615384615385,50.0,-34.0
206.0,-101562.0,-5468.0,-3004.6923076923076,2043.923076923077,-36.46153846153846,50.0,-34.0
208.0,-101562.0,-5468.0,-2974.6153846153848,2044.1538461538462,-36.57692307692308,50.0,-34.0
210.0,-101562.0,-5468.0,-2944.5384615384614,2044.3846153846155,-36.69230769230769,50.0,-34.0
212.0,-101562.0,-5468.0,-2914.4615384615386,2044.6153846153845,-36.80769230769231,50.0,-34.0
214.0,-101562.0,-5468.0,-2884.3846153846152,2044.8461538461538,-36.92307692307692,50.0,-34.0
216.0,-101562.0,-5468.0,-2854.3076923076924,2045.076923076923,-37.03846153846154,50.0,-34.0
218.0,-101562.0,-5468.0,-2824.230769230769,2045.3076923076924,-37.15384615384615,50.0,-34.0
220.0,-101562.0,-5468.0,-2794.153846153846,2045.5384615384614,-37.26923076923077,50.0,-34.0
222.0,-101562.0,-5468.0,-2764.076923076923,2045.7692307692307,-37.38461538461539,50.0,-34.0
224.0,-101562.0,-5468.0,-2734.0,2046.0,-37.5,50.0,-34.0
226.0,-101562.0,-5468.0,-2703.923076923077,2046.2307692307693,-37.61538461538461,50.0,-34.0
228.0,-101562.0,-5468.0,-2673.846153846154,2046.4615384615386,-37.73076923076923,50.0,-34.0
230.0,-101562.0,-5468.0,-2643.769230769231,2046.6923076923076,-37.84615384615385,50.0,-34.0
232.0,-101562.0,-5468.0,-2613.6923076923076,2046.923076923077,-37.96153846153846,50.0,-34.0
234.0,-101562.0,-5468.0,-2583.6153846153848,2047.1538461538462,-38.07692307692308,50.0,-34.0
236.0,-101562.0,-5468.0,-2553.5384615384614,2047.3846153846155,-38.19230769230769,50.0,-34.0
238.0,-101562.0,-5468.0,-2523.4615384615386,2047.6153846153845,-38.30769230769231,50.0,-34.0
240.0,-101562.0,-5468.0,-2493.3846153846152,2047.8461538461538,-38.42307692307692,50.0,-34.0
242.0,-101562.0,-5468.0,-2463.3076923076924,2048.076923076923,-38.53846153846154,50.0,-34.0
244.0,-101562.0,-5468.0,-2433.2307692307695,2048.3076923076924,-38.65384615384615,50.0,-34.0
246.0,-101562.0,-5468.0,-2403.153846153846,2048.5384615384614,-38.76923076923077,50.0,-34.0
248.0,-101562.0,-5468.0,-2373.076923076923,2048.769230769231,-38.88461538461539,50.0,-34.0
250.0,-101562.0,-5452.9807692307695,-2327.9807692307695,2049.076923076923,-39.09615384615385,49.980769230769226,-33.980769230769226
252.0,-101562.0,-5407.923076923077,-2282.923076923077,2049.3076923076924,-39.38461538461539,49.92307692307692,-33.92307692307692
254.0,-101562.0,-5377.884615384615,-2252.8846153846152,2049.4615384615386,-39.57692307692308,49.88461538461539,-33.88461538461539
256.0,-101562.0,-5347.846153846154,-2222.846153846154,2049.6153846153848,-39.76923076923077,49.84615384615385,-33.84615384615385
258.0,-101562.0,-5317.807692307692,-2192.8076923076924,2049.769230769231,-39.96153846153846,49.80769230769231,-33.80769230769231
260.0,-101562.0,-5287.7692307692305,-2162.769230769231,2049.923076923077,-40.15384615384615,49.76923076923077,-33.76923076923077
262.0,-101562.0,-5257.7307692307695,-2132.730769230769,2050.076923076923,-40.34615384615385,49.73076923076923,-33.73076923076923
264.0,-101562.0,-5227.692307692308,-2102.6923076923076,2050.230769230769,-40.53846153846154,49.69230769230769,-33.69230769230769
266.0,-101562.0,-5197.653846153846,-2072.653846153846,2050.3846153846152,-40.73076923076923,49.65384615384615,-33.65384615384615
268.0,-101562.0,-5167.615384615385,-2042.6153846153845,2050.5384615384614,-40.92307692307692,49.61538461538461,-33.61538461538461
270.0,-101562.0,-5137.576923076923,-2012.576923076923,2050.6923076923076,-41.11538461538461,49.57692307692308,-33.57692307692308
272.0,-101562.0,-5107.538461538462,-1982.5384615384614,2050.846153846154,-41.30769230769231,49.53846153846154,-33.53846153846154
274.0,-101562.0,-5077.5,-1952.5,2051.0,-41.5,49.5,-33.5
276.0,-101562.0,-5047.461538461538,-1922.4615384615386,2051.153846153846,-41.69230769230769,49.46153846153846,-33.46153846153846
278.0,-101562.0,-5017.423076923077,-1892.423076923077,2051.3076923076924,-41.88461538461539,49.42307692307692,-33.42307692307692
280.0,-101562.0,-4987.384615384615,-1862.3846153846152,2051.4615384615386,-42.07692307692308,49.38461538461539,-33.38461538461539
282.0,-101562.0,-4957.346153846154,-1832.3461538461538,2051.6153846153848,-42.26923076923077,49.34615384615385,-33.34615384615385
284.0,-101562.0,-4927.307692307692,-1802.3076923076924,2051.769230769231,-42.46153846153846,49.30769230769231,-33.30769230769231
286.0,-101562.0,-4897.2692307692305,-1772.2692307692307,2051.923076923077,-42.65384615384615,49.26923076923077,-33.26923076923077
288.0,-101562.0,-4867.2307692307695,-1742.230769230769,2052.076923076923,-42.84615384615385,49.23076923076923,-33.23076923076923
290.0,-101562.0,-4837.192307692308,-1712.1923076923076,2052.230769230769,-43.03846153846154,49.19230769230769,-33.19230769230769
292.0,-101562.0,-4807.153846153846,-1682.1538461538462,2052.3846153846152,-43.23076923076923,49.15384615384615,-33.15384615384615
294.0,-101562.0,-4777.115384615385,-1652.1153846153845,2052.5384615384614,-43.42307692307692,49.11538461538461,-33.11538461538461
296.0,-101562.0,-4747.076923076923,-1622.076923076923,2052.6923076923076,-43.61538461538461,49.07692307692308,-33.07692307692308
298.0,-101562.0,-4717.038461538462,-1592.0384615384614,2052.846153846154,-43.80769230769231,49.03846153846154,-33.03846153846154
300.0,-101562.0,-4702.0192307692305,-1562.0,2052.7692307692305,-44.07692307692308,49.0,-32.980769230769226
302.0,-101562.0,-4747.076923076923,-1562.0,2052.076923076923,-44.30769230769231,49.0,-32.92307692307692
304.0,-101562.0,-4777.115384615385,-1562.0,2051.6153846153848,-44.46153846153846,49.0,-32.88461538461539
306.0,-101562.0,-4807.153846153846,-1562.0,2051.153846153846,-44.61538461538461,49.0,-32.84615384615385
308.0,-101562.0,-4837.192307692308,-1562.0,2050.6923076923076,-44.76923076923077,49.0,-32.80769230769231
310.0,-101562.0,-4867.2307692307695,-1562.0,2050.230769230769,-44.92307692307692,49.0,-32.76923076923077
312.0,-101562.0,-4897.2692307692305,-1562.0,2049.769230769231,-45.07692307692308,49.0,-32.73076923076923
314.0,-101562.0,-4927.307692307692,-1562.0,2049.3076923076924,-45.23076923076923,49.0,-32.69230769230769
316.0,-101562.0,-4957.346153846154,-1562.0,2048.846153846154,-45.38461538461539,49.0,-32.65384615384615
318.0,-101562.0,-4987.384615384615,-1562.0,2048.3846153846152,-45.53846153846154,49.0,-32.61538461538461
320.0,-101562.0,-5017.423076923077,-1562.0,2047.923076923077,-45.69230769230769,49.0,-32.57692307692308
322.0,-101562.0,-5047.461538461538,-1562.0,2047.4615384615386,-45.84615384615385,49.0,-32.53846153846154
324.0,-101562.0,-5077.5,-1562.0,2047.0,-46.0,49.0,-32.5
326.0,-101562.0,-5107.538461538462,-1562.0,2046.5384615384614,-46.15384615384615,49.0,-32.46153846153846
328.0,-101562.0,-5137.576923076923,-1562.0,2046.076923076923,-46.30769230769231,49.0,-32.42307692307692
330.0,-101562.0,-5167.615384615385,-1562.0,2045.6153846153845,-46.46153846153846,49.0,-32.38461538461539
332.0,-101562.0,-5197.653846153846,-1562.0,2045.1538461538462,-46.61538461538461,49.0,-32.34615384615385
334.0,-101562.0,-5227.692307692308,-1562.0,2044.6923076923076,-46.76923076923077,49.0,-32.30769230769231
336.0,-101562.0,-5257.7307692307695,-1562.0,2044.2307692307693,-46.92307692307692,49.0,-32.26923076923077
338.0,-101562.0,-5287.7692307692305,-1562.0,2043.7692307692307,-47.07692307692308,49.0,-32.23076923076923
340.0,-101562.0,-5317.807692307692,-1562.0,2043.3076923076924,-47.23076923076923,49.0,-32.19230769230769
342.0,-101562.0,-5347.846153846154,-1562.0,2042.8461538461538,-47.38461538461539,49.0,-32.15384615384615
344.0,-101562.0,-5377.884615384615,-1562.0,2042.3846153846155,-47.53846153846154,49.0,-32.11538461538461
346.0,-101562.0,-5407.923076923077,-1562.0,2041.923076923077,-47.69230769230769,49.0,-32.07692307692308
348.0,-101562.0,-5437.961538461538,-1562.0,2041.4615384615386,-47.84615384615385,49.0,-32.03846153846154
350.0,-101577.01923076923,-5468.0,-1577.0192307692307,2041.1346153846152,-48.05769230769231,48.980769230769226,-31.98076923076923
352.0,-101622.07692307692,-5468.0,-1622.076923076923,2041.5384615384614,-48.23076923076923,48.92307692307692,-31.923076923076923
354.0,-101652.11538461539,-5468.0,-1652.1153846153845,2041.8076923076924,-48.34615384615385,48.88461538461539,-31.884615384615383
356.0,-101682.15384615384,-5468.0,-1682.1538461538462,2042.076923076923,-48.46153846153846,48.84615384615385,-31.846153846153847
358.0,-101712.19230769231,-5468.0,-1712.1923076923076,2042.3461538461538,-48.57692307692308,48.80769230769231,-31.807692307692307
360.0,-101742.23076923077,-5468.0,-1742.2307692307693,2042.6153846153845,-48.69230769230769,48.76923076923077,-31.76923076923077
362.0,-101772.26923076923,-5468.0,-1772.2692307692307,2042.8846153846155,-48.80769230769231,48.73076923076923,-31.73076923076923
364.0,-101802.30769230769,-5468.0,-1802.3076923076924,2043.1538461538462,-48.92307692307692,48.69230769230769,-31.692307692307693
366.0,-101832.34615384616,-5468.0,-1832.3461538461538,2043.423076923077,-49.03846153846154,48.65384615384615,-31.653846153846153
368.0,-101862.38461538461,-5468.0,-1862.3846153846155,2043.6923076923076,-49.15384615384615,48.61538461538461,-31.615384615384617
370.0,-101892.42307692308,-5468.0,-1892.423076923077,2043.9615384615386,-49.26923076923077,48.57692307692308,-31.576923076923077
372.0,-101922.46153846153,-5468.0,-1922.4615384615386,2044.2307692307693,-49.38461538461539,48.53846153846154,-31.53846153846154
374.0,-101952.5,-5468.0,-1952.5,2044.5,-49.5,48.5,-31.5
376.0,-101982.53846153847,-5468.0,-1982.5384615384614,2044.7692307692307,-49.61538461538461,48.46153846153846,-31.46153846153846
378.0,-102012.57692307692,-5468.0,-2012.576923076923,2045.0384615384614,-49.73076923076923,48.42307692307692,-31.423076923076923
380.0,-102042.61538461539,-5468.0,-2042.6153846153848,2045.3076923076924,-49.84615384615385,48.38461538461539,-31.384615384615383
382.0,-102072.65384615384,-5468.0,-2072.653846153846,2045.576923076923,-49.96153846153846,48.34615384615385,-31.346153846153847
384.0,-102102.69230769231,-5468.0,-2102.6923076923076,2045.8461538461538,-50.07692307692308,48.30769230769231,-31.307692307692307
386.0,-102132.73076923077,-5468.0,-2132.7307692307695,2046.1153846153845,-50.19230769230769,48.26923076923077,-31.26923076923077
388.0,-102162.76923076923,-5468.0,-2162.769230769231,2046.3846153846155,-50.30769230769231,48.23076923076923,-31.23076923076923
390.0,-102192.80769230769,-5468.0,-2192.8076923076924,2046.6538461538462,-50.42307692307692,48.19230769230769,-31.192307692307693
392.0,-102222.84615384616,-5468.0,-2222.846153846154,2046.923076923077,-50.53846153846154,48.15384615384615,-31.153846153846153
394.0,-102252.88461538461,-5468.0,-2252.8846153846152,2047.1923076923076,-50.65384615384615,48.11538461538461,-31.115384615384617
396.0,-102282.92307692308,-5468.0,-2282.923076923077,2047.4615384615386,-50.76923076923077,48.07692307692308,-31.076923076923077
398.0,-102312.96153846153,-5468.0,-2312.9615384615386,2047.7307692307693,-50.88461538461539,48.03846153846154,-31.03846153846154
400.0,-102327.98076923077,-5452.9807692307695,-2343.0,2048.076923076923,-51.03846153846154,48.0,-31.0
402.0,-102282.92307692308,-5407.923076923077,-2343.0,2048.3076923076924,-51.15384615384615,48.0,-31.0
404.0,-102252.88461538461,-5377.884615384615,-2343.0,2048.4615384615386,-51.23076923076923,48.0,-31.0
406.0,-102222.84615384616,-5347.846153846154,-2343.0,2048.6153846153848,-51.30769230769231,48.0,-31.0
408.0,-102192.80769230769,-5317.807692307692,-2343.0,2048.769230769231,-51.38461538461539,48.0,-31.0
410.0,-102162.76923076923,-5287.7692307692305,-2343.0,2048.923076923077,-51.46153846153846,48.0,-31.0
412.0,-102132.73076923077,-5257.7307692307695,-2343.0,2049.076923076923,-51.53846153846154,48.0,-31.0
414.0,-102102.69230769231,-5227.692307692308,-2343.0,2049.230769230769,-51.61538461538461,48.0,-31.0
416.0,-102072.65384615384,-5197.653846153846,-2343.0,2049.3846153846152,-51.69230769230769,48.0,-31.0
418.0,-102042.61538461539,-5167.615384615385,-2343.0,2049.5384615384614,-51.76923076923077,48.0,-31.0
420.0,-102012.57692307692,-5137.576923076923,-2343.0,2049.6923076923076,-51.84615384615385,48.0,-31.0
422.0,-101982.53846153847,-5107.538461538462,-2343.0,2049.846153846154,-51.92307692307692,48.0,-31.0
424.0,-101952.5,-5077.5,-2343.0,2050.0,-52.0,48.0,-31.0
426.0,-101922.46153846153,-5047.461538461538,-2343.0,2050.153846153846,-52.07692307692308,48.0,-31.0
428.0,-101892.42307692308,-5017.423076923077,-2343.0,2050.3076923076924,-52.15384615384615,48.0,-31.0
430.0,-101862.38461538461,-4987.384615384615,-2343.0,2050.4615384615386,-52.23076923076923,48.0,-31.0
432.0,-101832.34615384616,-4957.346153846154,-2343.0,2050.6153846153848,-52.30769230769231,48.0,-31.0
434.0,-101802.30769230769,-4927.307692307692,-2343.0,2050.769230769231,-52.38461538461539,48.0,-31.0
436.0,-101772.26923076923,-4897.2692307692305,-2343.0,2050.923076923077,-52.46153846153846,48.0,-31.0
438.0,-101742.23076923077,-4867.2307692307695,-2343.0,2051.076923076923,-52.53846153846154,48.0,-31.0
440.0,-101712.19230769231,-4837.192307692308,-2343.0,2051.230769230769,-52.61538461538461,48.0,-31.0
442.0,-101682.15384615384,-4807.153846153846,-2343.0,2051.3846153846152,-52.69230769230769,48.0,-31.0
444.0,-101652.11538461539,-4777.115384615385,-2343.0,2051.5384615384614,-52.76923076923077,48.0,-31.0
446.0,-101622.07692307692,-4747.076923076923,-2343.0,2051.6923076923076,-52.84615384615385,48.0,-31.0
448.0,-101592.03846153847,-4717.038461538462,-2343.0,2051.846153846154,-52.92307692307692,48.0,-31.0
450.0,-101562.0,-4702.0192307692305,-2312.9615384615386,2052.173076923077,-53.07692307692308,47.92307692307692,-31.0
452.0,-101562.0,-4747.076923076923,-2222.846153846154,2052.6923076923076,-53.30769230769231,47.69230769230769,-31.0
454.0,-101562.0,-4777.115384615385,-2162.769230769231,2053.0384615384614,-53.46153846153846,47.53846153846154,-31.0
456.0,-101562.0,-4807.153846153846,-2102.6923076923076,2053.3846153846152,-53.61538461538461,47.38461538461539,-31.0
458.0,-101562.0,-4837.192307692308,-2042.6153846153845,2053.730769230769,-53.76923076923077,47.23076923076923,-31.0
460.0,-101562.0,-4867.2307692307695,-1982.5384615384614,2054.076923076923,-53.92307692307692,47.07692307692308,-31.0
462.0,-101562.0,-4897.2692307692305,-1922.4615384615386,2054.423076923077,-54.07692307692308,46.92307692307692,-31.0
464.0,-101562.0,-4927.307692307692,-1862.3846153846152,2054.769230769231,-54.23076923076923,46.76923076923077,-31.0
466.0,-101562.0,-4957.346153846154,-1802.3076923076924,2055.1153846153848,-54.38461538461539,46.61538461538461,-31.0
468.0,-101562.0,-4987.384615384615,-1742.230769230769,2055.4615384615386,-54.53846153846154,46.46153846153846,-31.0
470.0,-101562.0,-5017.423076923077,-1682.1538461538462,2055.8076923076924,-54.69230769230769,46.30769230769231,-31.0
472.0,-101562.0,-5047.461538461538,-1622.076923076923,2056.153846153846,-54.84615384615385,46.15384615384615,-31.0
474.0,-101562.0,-5077.5,-1562.0,2056.5,-55.0,46.0,-31.0
476.0,-101562.0,-5107.538461538462,-1501.923076923077,2056.846153846154,-55.15384615384615,45.84615384615385,-31.0
478.0,-101562.0,-5137.576923076923,-1441.8461538461538,2057.1923076923076,-55.30769230769231,45.69230769230769,-31.0
480.0,-101562.0,-5167.615384615385,-1381.7692307692307,2057.5384615384614,-55.46153846153846,45.53846153846154,-31.0
482.0,-101562.0,-5197.653846153846,-1321.6923076923076,2057.8846153846152,-55.61538461538461,45.38461538461539,-31.0
484.0,-101562.0,-5227.692307692308,-1261.6153846153845,2058.230769230769,-55.76923076923077,45.23076923076923,-31.0
486.0,-101562.0,-5257.7307692307695,-1201.5384615384614,2058.576923076923,-55.92307692307692,45.07692307692308,-31.0
488.0,-101562.0,-5287.7692307692305,-1141.4615384615383,2058.923076923077,-56.07692307692308,44.92307692307692,-31.0
490.0,-101562.0,-5317.807692307692,-1081.3846153846152,2059.269230769231,-56.23076923076923,44.76923076923077,-31.0
492.0,-101562.0,-5347.846153846154,-1021.3076923076922,2059.6153846153848,-56.38461538461539,44.61538461538461,-31.0
494.0,-101562.0,-5377.884615384615,-961.230769230769,2059.9615384615386,-56.53846153846154,44.46153846153846,-31.0
496.0,-101562.0,-5407.923076923077,-901.1538461538462,2060.3076923076924,-56.69230769230769,44.30769230769231,-31.0
498.0,-101562.0,-5437.961538461538,-841.0769230769231,2060.653846153846,-56.84615384615385,44.15384615384615,-31.0
500.0,-101562.0,-5437.961538461539,-765.9807692307693,2060.8076923076924,-57.019230769230774,44.0,-30.98076923076923
502.0,-101562.0,-5347.846153846154,-720.9230769230769,2060.230769230769,-57.07692307692308,44.0,-30.923076923076923
504.0,-101562.0,-5287.7692307692305,-690.8846153846154,2059.846153846154,-57.11538461538461,44.0,-30.884615384615383
506.0,-101562.0,-5227.692307692308,-660.8461538461538,2059.4615384615386,-57.15384615384615,44.0,-30.846153846153847
508.0,-101562.0,-5167.615384615385,-630.8076923076923,2059.076923076923,-57.19230769230769,44.0,-30.807692307692307
510.0,-101562.0,-5107.538461538462,-600.7692307692307,2058.6923076923076,-57.23076923076923,44.0,-30.76923076923077
512.0,-101562.0,-5047.461538461538,-570.7307692307693,2058.3076923076924,-57.26923076923077,44.0,-30.73076923076923
514.0,-101562.0,-4987.384615384615,-540.6923076923076,2057.923076923077,-57.30769230769231,44.0,-30.692307692307693
516.0,-101562.0,-4927.307692307692,-510.65384615384613,2057.5384615384614,-57.34615384615385,44.0,-30.653846153846153
518.0,-101562.0,-4867.2307692307695,-480.6153846153846,2057.153846153846,-57.38461538461539,44.0,-30.615384615384617
520.0,-101562.0,-4807.153846153846,-450.57692307692304,2056.769230769231,-57.42307692307692,44.0,-30.576923076923077
522.0,-101562.0,-4747.076923076923,-420.53846153846155,2056.3846153846152,-57.46153846153846,44.0,-30.53846153846154
524.0,-101562.0,-4687.0,-390.5,2056.0,-57.5,44.0,-30.5
526.0,-101562.0,-4626.923076923077,-360.46153846153845,2055.6153846153848,-57.53846153846154,44.0,-30.46153846153846
528.0,-101562.0,-4566.846153846154,-330.4230769230769,2055.230769230769,-57.57692307692308,44.0,-30.423076923076923
530.0,-101562.0,-4506.7692307692305,-300.38461538461536,2054.846153846154,-57.61538461538461,44.0,-30.384615384615383
532.0,-101562.0,-4446.692307692308,-270.3461538461538,2054.4615384615386,-57.65384615384615,44.0,-30.346153846153847
534.0,-101562.0,-4386.615384615385,-240.30769230769226,2054.076923076923,-57.69230769230769,44.0,-30.307692307692307
536.0,-101562.0,-4326.538461538461,-210.26923076923072,2053.6923076923076,-57.73076923076923,44.0,-30.26923076923077
538.0,-101562.0,-4266.461538461538,-180.23076923076917,2053.3076923076924,-57.76923076923077,44.0,-30.23076923076923
540.0,-101562.0,-4206.384615384615,-150.19230769230762,2052.923076923077,-57.80769230769231,44.0,-30.192307692307693
542.0,-101562.0,-4146.307692307692,-120.15384615384608,2052.5384615384614,-57.84615384615385,44.0,-30.153846153846153
544.0,-101562.0,-4086.230769230769,-90.11538461538453,2052.153846153846,-57.88461538461539,44.0,-30.115384615384617
546.0,-101562.0,-4026.153846153846,-60.076923076923094,2051.769230769231,-57.92307692307692,44.0,-30.076923076923077
548.0,-101562.0,-3966.076923076923,-30.038461538461547,2051.3846153846152,-57.96153846153846,44.0,-30.03846153846154
550.0,-101531.96153846153,-3890.9807692307695,-30.03846153846154,2051.1923076923076,-58.019230769230774,43.96153846153846,-29.98076923076923
552.0,-101441.84615384616,-3845.923076923077,-120.15384615384616,2051.769230769231,-58.07692307692308,43.84615384615385,-29.923076923076923
554.0,-101381.76923076923,-3815.8846153846152,-180.23076923076923,2052.153846153846,-58.11538461538461,43.76923076923077,-29.884615384615383
556.0,-101321.69230769231,-3785.846153846154,-240.30769230769232,2052.5384615384614,-58.15384615384615,43.69230769230769,-29.846153846153847
558.0,-101261.61538461539,-3755.8076923076924,-300.3846153846154,2052.923076923077,-58.19230769230769,43.61538461538461,-29.807692307692307
560.0,-101201.53846153847,-3725.769230769231,-360.46153846153845,2053.3076923076924,-58.23076923076923,43.53846153846154,-29.76923076923077
562.0,-101141.46153846153,-3695.730769230769,-420.53846153846155,2053.6923076923076,-58.26923076923077,43.46153846153846,-29.73076923076923
564.0,-101081.38461538461,-3665.6923076923076,-480.61538461538464,2054.076923076923,-58.30769230769231,43.38461538461539,-29.692307692307693
566.0,-101021.30769230769,-3635.653846153846,-540.6923076923077,2054.4615384615386,-58.34615384615385,43.30769230769231,-29.653846153846153
568.0,-100961.23076923077,-3605.6153846153848,-600.7692307692308,2054.846153846154,-58.38461538461539,43.23076923076923,-29.615384615384617
570.0,-100901.15384615384,-3575.576923076923,-660.8461538461539,2055.230769230769,-58.42307692307692,43.15384615384615,-29.576923076923077
572.0,-100841.07692307692,-3545.5384615384614,-720.9230769230769,2055.6153846153848,-58.46153846153846,43.07692307692308,-29.53846153846154
574.0,-100781.0,-3515.5,-781.0,2056.0,-58.5,43.0,-29.5
576.0,-100720.92307692308,-3485.4615384615386,-841.0769230769231,2056.3846153846152,-58.53846153846154,42.92307692307692,-29.46153846153846
578.0,-100660.84615384616,-3455.423076923077,-901.1538461538462,2056.769230769231,-58.57692307692308,42.84615384615385,-29.423076923076923
580.0,-100600.76923076923,-3425.3846153846152,-961.2307692307693,2057.153846153846,-58.61538461538461,42.76923076923077,-29.384615384615383
582.0,-100540.69230769231,-3395.346153846154,-1021.3076923076924,2057.5384615384614,-58.65384615384615,42.69230769230769,-29.346153846153847
584.0,-100480.61538461539,-3365.3076923076924,-1081.3846153846155,2057.923076923077,-58.69230769230769,42.61538461538461,-29.307692307692307
586.0,-100420.53846153847,-3335.2692307692305,-1141.4615384615386,2058.3076923076924,-58.73076923076923,42.53846153846154,-29.26923076923077
588.0,-100360.46153846153,-3305.230769230769,-1201.5384615384617,2058.6923076923076,-58.76923076923077,42.46153846153846,-29.23076923076923
590.0,-100300.38461538461,-3275.1923076923076,-1261.6153846153848,2059.076923076923,-58.80769230769231,42.38461538461539,-29.192307692307693
592.0,-100240.30769230769,-3245.153846153846,-1321.6923076923078,2059.4615384615386,-58.84615384615385,42.30769230769231,-29.153846153846153
594.0,-100180.23076923077,-3215.1153846153848,-1381.769230769231,2059.846153846154,-58.88461538461539,42.23076923076923,-29.115384615384617
596.0,-100120.15384615384,-3185.076923076923,-1441.8461538461538,2060.230769230769,-58.92307692307692,42.15384615384615,-29.076923076923077
598.0,-100060.07692307692,-3155.0384615384614,-1501.923076923077,2060.6153846153848,-58.96153846153846,42.07692307692308,-29.03846153846154
600.0,-100000.0,-3140.0192307692305,-1577.0192307692307,2060.8076923076924,-59.03846153846154,41.92307692307692,-28.98076923076923
602.0,-100000.0,-3185.076923076923,-1622.076923076923,2060.230769230769,-59.15384615384615,41.69230769230769,-28.923076923076923
604.0,-100000.0,-3215.1153846153848,-1652.1153846153845,2059.846153846154,-59.23076923076923,41.53846153846154,-28.884615384615383
606.0,-100000.0,-3245.153846153846,-1682.1538461538462,2059.4615384615386,-59.30769230769231,41.38461538461539,-28.846153846153847
608.0,-100000.0,-3275.1923076923076,-1712.1923076923076,2059.076923076923,-59.38461538461539,41.23076923076923,-28.807692307692307
610.0,-100000.0,-3305.230769230769,-1742.2307692307693,2058.6923076923076,-59.46153846153846,41.07692307692308,-28.76923076923077
612.0,-100000.0,-3335.269230769231,-1772.2692307692307,2058.3076923076924,-59.53846153846154,40.92307692307692,-28.73076923076923
614.0,-100000.0,-3365.3076923076924,-1802.3076923076924,2057.923076923077,-59.61538461538461,40.76923076923077,-28.692307692307693
616.0,-100000.0,-3395.346153846154,-1832.3461538461538,2057.5384615384614,-59.69230769230769,40.61538461538461,-28.653846153846153
618.0,-100000.0,-3425.3846153846152,-1862.3846153846155,2057.153846153846,-59.76923076923077,40.46153846153846,-28.615384615384617
620.0,-100000.0,-3455.423076923077,-1892.423076923077,2056.769230769231,-59.84615384615385,40.30769230769231,-28.576923076923077
622.0,-100000.0,-3485.4615384615386,-1922.4615384615386,2056.3846153846152,-59.92307692307692,40.15384615384615,-28.53846153846154
624.0,-100000.0,-3515.5,-1952.5,2056.0,-60.0,40.0,-28.5
626.0,-100000.0,-3545.5384615384614,-1982.5384615384614,2055.6153846153848,-60.07692307692308,39.84615384615385,-28.46153846153846
628.0,-100000.0,-3575.576923076923,-2012.576923076923,2055.230769230769,-60.15384615384615,39.69230769230769,-28.423076923076923
630.0,-100000.0,-3605.6153846153848,-2042.6153846153848,2054.846153846154,-60.23076923076923,39.53846153846154,-28.384615384615383
632.0,-100000.0,-3635.653846153846,-2072.653846153846,2054.4615384615386,-60.30769230769231,39.38461538461539,-28.346153846153847
634.0,-100000.0,-3665.6923076923076,-2102.6923076923076,2054.076923076923,-60.38461538461539,39.23076923076923,-28.307692307692307
636.0,-100000.0,-3695.7307692307695,-2132.7307692307695,2053.6923076923076,-60.46153846153846,39.07692307692308,-28.26923076923077
638.0,-100000.0,-3725.769230769231,-2162.769230769231,2053.3076923076924,-60.53846153846154,38.92307692307692,-28.23076923076923
640.0,-100000.0,-3755.8076923076924,-2192.8076923076924,2052.923076923077,-60.61538461538461,38.76923076923077,-28.192307692307693
642.0,-100000.0,-3785.846153846154,-2222.846153846154,2052.5384615384614,-60.69230769230769,38.61538461538461,-28.153846153846153
644.0,-100000.0,-3815.8846153846152,-2252.8846153846152,2052.153846153846,-60.76923076923077,38.46153846153846,-28.115384615384617
646.0,-100000.0,-3845.923076923077,-2282.923076923077,2051.769230769231,-60.84615384615385,38.30769230769231,-28.076923076923077
648.0,-100000.0,-3875.9615384615386,-2312.9615384615386,2051.3846153846152,-60.92307692307692,38.15384615384615,-28.03846153846154
650.0,-100015.01923076923,-3875.9423076923076,-2327.9807692307695,2051.0192307692305,-61.0,38.019230769230774,-27.98076923076923
652.0,-100060.07692307692,-3785.769230769231,-2282.923076923077,2051.076923076923,-61.0,38.07692307692308,-27.923076923076923
654.0,-100090.11538461539,-3725.653846153846,-2252.8846153846152,2051.1153846153848,-61.0,38.11538461538461,-27.884615384615383
656.0,-100120.15384615384,-3665.5384615384614,-2222.846153846154,2051.153846153846,-61.0,38.15384615384615,-27.846153846153847
658.0,-100150.19230769231,-3605.423076923077,-2192.8076923076924,2051.1923076923076,-61.0,38.19230769230769,-27.807692307692307
660.0,-100180.23076923077,-3545.3076923076924,-2162.769230769231,2051.230769230769,-61.0,38.23076923076923,-27.76923076923077
662.0,-100210.26923076923,-3485.1923076923076,-2132.730769230769,2051.269230769231,-61.0,38.26923076923077,-27.73076923076923
664.0,-100240.30769230769,-3425.076923076923,-2102.6923076923076,2051.3076923076924,-61.0,38.30769230769231,-27.692307692307693
666.0,-100270.34615384616,-3364.9615384615386,-2072.653846153846,2051.346153846154,-61.0,38.34615384615385,-27.653846153846153
668.0,-100300.38461538461,-3304.846153846154,-2042.6153846153845,2051.3846153846152,-61.0,38.38461538461539,-27.615384615384617
670.0,-100330.42307692308,-3244.7307692307695,-2012.576923076923,2051.423076923077,-61.0,38.42307692307692,-27.576923076923077
672.0,-100360.46153846153,-3184.6153846153848,-1982.5384615384614,2051.4615384615386,-61.0,38.46153846153846,-27.53846153846154
674.0,-100390.5,-3124.5,-1952.5,2051.5,-61.0,38.5,-27.5
676.0,-100420.53846153847,-3064.3846153846152,-1922.4615384615386,2051.5384615384614,-61.0,38.53846153846154,-27.46153846153846
678.0,-100450.57692307692,-3004.269230769231,-1892.423076923077,2051.576923076923,-61.0,38.57692307692308,-27.423076923076923
680.0,-100480.61538461539,-2944.153846153846,-1862.3846153846152,2051.6153846153848,-61.0,38.61538461538461,-27.384615384615383
682.0,-100510.65384615384,-2884.0384615384614,-1832.3461538461538,2051.653846153846,-61.0,38.65384615384615,-27.346153846153847
684.0,-100540.69230769231,-2823.923076923077,-1802.3076923076924,2051.6923076923076,-61.0,38.69230769230769,-27.307692307692307
686.0,-100570.73076923077,-2763.8076923076924,-1772.2692307692307,2051.730769230769,-61.0,38.73076923076923,-27.26923076923077
688.0,-100600.76923076923,-2703.6923076923076,-1742.230769230769,2051.769230769231,-61.0,38.76923076923077,-27.23076923076923
690.0,-100630.80769230769,-2643.576923076923,-1712.1923076923076,2051.8076923076924,-61.0,38.80769230769231,-27.192307692307693
692.0,-100660.84615384616,-2583.4615384615386,-1682.1538461538462,2051.846153846154,-61.0,38.84615384615385,-27.153846153846153
694.0,-100690.88461538461,-2523.346153846154,-1652.1153846153845,2051.8846153846152,-61.0,38.88461538461539,-27.115384615384617
696.0,-100720.92307692308,-2463.2307692307695,-1622.076923076923,2051.923076923077,-61.0,38.92307692307692,-27.076923076923077
698.0,-100750.96153846153,-2403.1153846153848,-1592.0384615384614,2051.9615384615386,-61.0,38.96153846153846,-27.03846153846154
700.0,-100781.0,-2373.0576923076924,-1546.9807692307693,2052.1153846153848,-61.05769230769231,38.980769230769226,-26.98076923076923
702.0,-100781.0,-2463.230769230769,-1501.923076923077,2052.4615384615386,-61.23076923076923,38.92307692307692,-26.923076923076923
704.0,-100781.0,-2523.346153846154,-1471.8846153846155,2052.6923076923076,-61.34615384615385,38.88461538461539,-26.884615384615383
706.0,-100781.0,-2583.4615384615386,-1441.8461538461538,2052.923076923077,-61.46153846153846,38.84615384615385,-26.846153846153847
708.0,-100781.0,-2643.576923076923,-1411.8076923076924,2053.153846153846,-61.57692307692308,38.80769230769231,-26.807692307692307
710.0,-100781.0,-2703.6923076923076,-1381.7692307692307,2053.3846153846152,-61.69230769230769,38.76923076923077,-26.76923076923077
712.0,-100781.0,-2763.8076923076924,-1351.7307692307693,2053.6153846153848,-61.80769230769231,38.73076923076923,-26.73076923076923
714.0,-100781.0,-2823.923076923077,-1321.6923076923076,2053.846153846154,-61.92307692307692,38.69230769230769,-26.692307692307693
716.0,-100781.0,-2884.0384615384614,-1291.6538461538462,2054.076923076923,-62.03846153846154,38.65384615384615,-26.653846153846153
718.0,-100781.0,-2944.153846153846,-1261.6153846153845,2054.3076923076924,-62.15384615384615,38.61538461538461,-26.615384615384617
720.0,-100781.0,-3004.2692307692305,-1231.576923076923,2054.5384615384614,-62.26923076923077,38.57692307692308,-26.576923076923077
722.0,-100781.0,-3064.3846153846152,-1201.5384615384614,2054.769230769231,-62.38461538461539,38.53846153846154,-26.53846153846154
724.0,-100781.0,-3124.5,-1171.5,2055.0,-62.5,38.5,-26.5
726.0,-100781.0,-3184.6153846153848,-1141.4615384615386,2055.230769230769,-62.61538461538461,38.46153846153846,-26.46153846153846
728.0,-100781.0,-3244.730769230769,-1111.423076923077,2055.4615384615386,-62.73076923076923,38.42307692307692,-26.423076923076923
730.0,-100781.0,-3304.846153846154,-1081.3846153846152,2055.6923076923076,-62.84615384615385,38.38461538461539,-26.384615384615383
732.0,-100781.0,-3364.9615384615386,-1051.3461538461538,2055.923076923077,-62.96153846153846,38.34615384615385,-26.346153846153847
734.0,-100781.0,-3425.076923076923,-1021.3076923076923,2056.153846153846,-63.07692307692308,38.30769230769231,-26.307692307692307
736.0,-100781.0,-3485.1923076923076,-991.2692307692307,2056.3846153846152,-63.19230769230769,38.26923076923077,-26.26923076923077
738.0,-100781.0,-3545.3076923076924,-961.2307692307692,2056.6153846153848,-63.30769230769231,38.23076923076923,-26.23076923076923
740.0,-100781.0,-3605.423076923077,-931.1923076923076,2056.846153846154,-63.42307692307692,38.19230769230769,-26.192307692307693
742.0,-100781.0,-3665.5384615384614,-901.1538461538461,2057.076923076923,-63.53846153846154,38.15384615384615,-26.153846153846153
744.0,-100781.0,-3725.653846153846,-871.1153846153845,2057.3076923076924,-63.65384615384615,38.11538461538461,-26.115384615384617
746.0,-100781.0,-3785.7692307692305,-841.0769230769231,2057.5384615384614,-63.76923076923077,38.07692307692308,-26.076923076923077
748.0,-100781.0,-3845.8846153846152,-811.0384615384615,2057.769230769231,-63.88461538461539,38.03846153846154,-26.03846153846154
750.0,-100781.0,-3890.9807692307695,-781.0,2057.903846153846,-64.01923076923077,38.0,-25.98076923076923
752.0,-100781.0,-3845.923076923077,-781.0,2057.6153846153848,-64.07692307692308,38.0,-25.923076923076923
754.0,-100781.0,-3815.8846153846152,-781.0,2057.423076923077,-64.11538461538461,38.0,-25.884615384615383
756.0,-100781.0,-3785.846153846154,-781.0,2057.230769230769,-64.15384615384616,38.0,-25.846153846153847
758.0,-100781.0,-3755.8076923076924,-781.0,2057.0384615384614,-64.1923076923077,38.0,-25.807692307692307
760.0,-100781.0,-3725.769230769231,-781.0,2056.846153846154,-64.23076923076923,38.0,-25.76923076923077
762.0,-100781.0,-3695.730769230769,-781.0,2056.653846153846,-64.26923076923077,38.0,-25.73076923076923
764.0,-100781.0,-3665.6923076923076,-781.0,2056.4615384615386,-64.3076923076923,38.0,-25.692307692307693
766.0,-100781.0,-3635.653846153846,-781.0,2056.269230769231,-64.34615384615384,38.0,-25.653846153846153
768.0,-100781.0,-3605.6153846153848,-781.0,2056.076923076923,-64.38461538461539,38.0,-25.615384615384617
770.0,-100781.0,-3575.576923076923,-781.0,2055.8846153846152,-64.42307692307692,38.0,-25.576923076923077
772.0,-100781.0,-3545.5384615384614,-781.0,2055.6923076923076,-64.46153846153847,38.0,-25.53846153846154
774.0,-100781.0,-3515.5,-781.0,2055.5,-64.5,38.0,-25.5
776.0,-100781.0,-3485.4615384615386,-781.0,2055.3076923076924,-64.53846153846153,38.0,-25.46153846153846
778.0,-100781.0,-3455.423076923077,-781.0,2055.1153846153848,-64.57692307692308,38.0,-25.423076923076923
780.0,-100781.0,-3425.3846153846152,-781.0,2054.923076923077,-64.61538461538461,38.0,-25.384615384615383
782.0,-100781.0,-3395.346153846154,-781.0,2054.730769230769,-64.65384615384616,38.0,-25.346153846153847
784.0,-100781.0,-3365.3076923076924,-781.0,2054.5384615384614,-64.6923076923077,38.0,-25.307692307692307
786.0,-100781.0,-3335.2692307692305,-781.0,2054.346153846154,-64.73076923076923,38.0,-25.26923076923077
788.0,-100781.0,-3305.230769230769,-781.0,2054.153846153846,-64.76923076923077,38.0,-25.23076923076923
790.0,-100781.0,-3275.1923076923076,-781.0,2053.9615384615386,-64.8076923076923,38.0,-25.192307692307693
792.0,-100781.0,-3245.153846153846,-781.0,2053.769230769231,-64.84615384615384,38.0,-25.153846153846153
794.0,-100781.0,-3215.1153846153848,-781.0,2053.576923076923,-64.88461538461539,38.0,-25.115384615384617
796.0,-100781.0,-3185.076923076923,-781.0,2053.3846153846152,-64.92307692307692,38.0,-25.076923076923077
798.0,-100781.0,-3155.0384615384614,-781.0,2053.1923076923076,-64.96153846153847,38.0,-25.03846153846154
800.0,-100765.98076923077,-3140.0192307692305,-765.9807692307693,2052.903846153846,-65.0,38.03846153846154,-24.98076923076923
802.0,-100720.92307692308,-3185.076923076923,-720.9230769230769,2052.6153846153848,-65.0,38.15384615384615,-24.923076923076923
804.0,-100690.88461538461,-3215.1153846153848,-690.8846153846154,2052.423076923077,-65.0,38.23076923076923,-24.884615384615383
806.0,-100660.84615384616,-3245.153846153846,-660.8461538461538,2052.230769230769,-65.0,38.30769230769231,-24.846153846153847
808.0,-100630.80769230769,-3275.1923076923076,-630.8076923076923,2052.0384615384614,-65.0,38.38461538461539,-24.807692307692307
810.0,-100600.76923076923,-3305.230769230769,-600.7692307692307,2051.846153846154,-65.0,38.46153846153846,-24.76923076923077
812.0,-100570.73076923077,-3335.269230769231,-570.7307692307693,2051.653846153846,-65.0,38.53846153846154,-24.73076923076923
814.0,-100540.69230769231,-3365.3076923076924,-540.6923076923076,2051.4615384615386,-65.0,38.61538461538461,-24.692307692307693
816.0,-100510.65384615384,-3395.346153846154,-510.65384615384613,2051.269230769231,-65.0,38.69230769230769,-24.653846153846153
818.0,-100480.61538461539,-3425.3846153846152,-480.6153846153846,2051.076923076923,-65.0,38.76923076923077,-24.615384615384617
820.0,-100450.57692307692,-3455.423076923077,-450.57692307692304,2050.8846153846152,-65.0,38.84615384615385,-24.576923076923077
822.0,-100420.53846153847,-3485.4615384615386,-420.53846153846155,2050.6923076923076,-65.0,38.92307692307692,-24.53846153846154
824.0,-100390.5,-3515.5,-390.5,2050.5,-65.0,39.0,-24.5
826.0,-100360.46153846153,-3545.5384615384614,-360.46153846153845,2050.3076923076924,-65.0,39.07692307692308,-24.46153846153846
828.0,-100330.42307692308,-3575.576923076923,-330.4230769230769,2050.1153846153848,-65.0,39.15384615384615,-24.423076923076923
830.0,-100300.38461538461,-3605.6153846153848,-300.38461538461536,2049.923076923077,-65.0,39.23076923076923,-24.384615384615383
832.0,-100270.34615384616,-3635.653846153846,-270.3461538461538,2049.730769230769,-65.0,39.30769230769231,-24.346153846153847
834.0,-100240.30769230769,-3665.6923076923076,-240.30769230769226,2049.5384615384614,-65.0,39.38461538461539,-24.307692307692307
836.0,-100210.26923076923,-3695.7307692307695,-210.26923076923072,2049.346153846154,-65.0,39.46153846153846,-24.26923076923077
838.0,-100180.23076923077,-3725.769230769231,-180.23076923076917,2049.153846153846,-65.0,39.53846153846154,-24.23076923076923
840.0,-100150.19230769231,-3755.8076923076924,-150.19230769230762,2048.9615384615386,-65.0,39.61538461538461,-24.192307692307693
842.0,-100120.15384615384,-3785.846153846154,-120.15384615384608,2048.769230769231,-65.0,39.69230769230769,-24.153846153846153
844.0,-100090.11538461539,-3815.8846153846152,-90.11538461538453,2048.576923076923,-65.0,39.76923076923077,-24.115384615384617
846.0,-100060.07692307692,-3845.923076923077,-60.076923076923094,2048.3846153846152,-65.0,39.84615384615385,-24.076923076923077
848.0,-100030.03846153847,-3875.9615384615386,-30.038461538461547,2048.1923076923076,-65.0,39.92307692307692,-24.03846153846154
850.0,-99984.96153846153,-3951.076923076923,0.0,2048.0576923076924,-64.98076923076923,40.0,-23.98076923076923
852.0,-99939.84615384616,-4086.3076923076924,0.0,2048.230769230769,-64.92307692307692,40.0,-23.923076923076923
854.0,-99909.76923076923,-4176.461538461538,0.0,2048.346153846154,-64.88461538461539,40.0,-23.884615384615383
856.0,-99879.69230769231,-4266.615384615385,0.0,2048.4615384615386,-64.84615384615384,40.0,-23.846153846153847
858.0,-99849.61538461539,-4356.7692307692305,0.0,2048.576923076923,-64.8076923076923,40.0,-23.807692307692307
860.0,-99819.53846153847,-4446.923076923077,0.0,2048.6923076923076,-64.76923076923077,40.0,-23.76923076923077
862.0,-99789.46153846153,-4537.076923076923,0.0,2048.8076923076924,-64.73076923076923,40.0,-23.73076923076923
864.0,-99759.38461538461,-4627.2307692307695,0.0,2048.923076923077,-64.6923076923077,40.0,-23.692307692307693
866.0,-99729.30769230769,-4717.384615384615,0.0,2049.0384615384614,-64.65384615384616,40.0,-23.653846153846153
868.0,-99699.23076923077,-4807.538461538462,0.0,2049.153846153846,-64.61538461538461,40.0,-23.615384615384617
870.0,-99669.15384615384,-4897.692307692308,0.0,2049.269230769231,-64.57692307692308,40.0,-23.576923076923077
872.0,-99639.07692307692,-4987.846153846154,0.0,2049.3846153846152,-64.53846153846153,40.0,-23.53846153846154
874.0,-99609.0,-5078.0,0.0,2049.5,-64.5,40.0,-23.5
876.0,-99578.92307692308,-5168.153846153846,0.0,2049.6153846153848,-64.46153846153847,40.0,-23.46153846153846
878.0,-99548.84615384616,-5258.307692307692,0.0,2049.730769230769,-64.42307692307692,40.0,-23.423076923076923
880.0,-99518.76923076923,-5348.461538461539,0.0,2049.846153846154,-64.38461538461539,40.0,-23.384615384615383
882.0,-99488.69230769231,-5438.615384615385,0.0,2049.9615384615386,-64.34615384615384,40.0,-23.346153846153847
884.0,-99458.61538461539,-5528.7692307692305,0.0,2050.076923076923,-64.3076923076923,40.0,-23.307692307692307
886.0,-99428.53846153847,-5618.923076923077,0.0,2050.1923076923076,-64.26923076923077,40.0,-23.26923076923077
888.0,-99398.46153846153,-5709.076923076924,0.0,2050.3076923076924,-64.23076923076923,40.0,-23.23076923076923
890.0,-99368.38461538461,-5799.2307692307695,0.0,2050.423076923077,-64.1923076923077,40.0,-23.192307692307693
892.0,-99338.30769230769,-5889.384615384615,0.0,2050.5384615384614,-64.15384615384616,40.0,-23.153846153846153
894.0,-99308.23076923077,-5979.538461538462,0.0,2050.653846153846,-64.11538461538461,40.0,-23.115384615384617
896.0,-99278.15384615384,-6069.692307692308,0.0,2050.769230769231,-64.07692307692308,40.0,-23.076923076923077
898.0,-99248.07692307692,-6159.846153846154,0.0,2050.8846153846152,-64.03846153846153,40.0,-23.03846153846154
900.0,-99218.0,-6250.0,15.01923076923077,2051.1153846153848,-63.96153846153846,40.0,-23.01923076923077
902.0,-99218.0,-6250.0,60.07692307692308,2051.4615384615386,-63.84615384615385,40.0,-23.076923076923077
904.0,-99218.0,-6250.0,90.11538461538461,2051.6923076923076,-63.76923076923077,40.0,-23.115384615384617
906.0,-99218.0,-6250.0,120.15384615384616,2051.923076923077,-63.69230769230769,40.0,-23.153846153846153
908.0,-99218.0,-6250.0,150.1923076923077,2052.153846153846,-63.61538461538461,40.0,-23.192307692307693
910.0,-99218.0,-6250.0,180.23076923076923,2052.3846153846152,-63.53846153846154,40.0,-23.23076923076923
912.0,-99218.0,-6250.0,210.26923076923077,2052.6153846153848,-63.46153846153846,40.0,-23.26923076923077
914.0,-99218.0,-6250.0,240.30769230769232,2052.846153846154,-63.38461538461539,40.0,-23.307692307692307
916.0,-99218.0,-6250.0,270.34615384615387,2053.076923076923,-63.30769230769231,40.0,-23.346153846153847
918.0,-99218.0,-6250.0,300.3846153846154,2053.3076923076924,-63.23076923076923,40.0,-23.384615384615383
920.0,-99218.0,-6250.0,330.42307692307696,2053.5384615384614,-63.15384615384615,40.0,-23.423076923076923
922.0,-99218.0,-6250.0,360.46153846153845,2053.769230769231,-63.07692307692308,40.0,-23.46153846153846
924.0,-99218.0,-6250.0,390.5,2054.0,-63.0,40.0,-23.5
926.0,-99218.0,-6250.0,420.53846153846155,2054.230769230769,-62.92307692307692,40.0,-23.53846153846154
928.0,-99218.0,-6250.0,450.5769230769231,2054.4615384615386,-62.84615384615385,40.0,-23.576923076923077
930.0,-99218.0,-6250.0,480.61538461538464,2054.6923076923076,-62.76923076923077,40.0,-23.615384615384617
932.0,-99218.0,-6250.0,510.6538461538462,2054.923076923077,-62.69230769230769,40.0,-23.653846153846153
934.0,-99218.0,-6250.0,540.6923076923077,2055.153846153846,-62.61538461538461,40.0,-23.692307692307693
936.0,-99218.0,-6250.0,570.7307692307693,2055.3846153846152,-62.53846153846154,40.0,-23.73076923076923
938.0,-99218.0,-6250.0,600.7692307692308,2055.6153846153848,-62.46153846153846,40.0,-23.76923076923077
940.0,-99218.0,-6250.0,630.8076923076924,2055.846153846154,-62.38461538461539,40.0,-23.807692307692307
942.0,-99218.0,-6250.0,660.8461538461539,2056.076923076923,-62.30769230769231,40.0,-23.846153846153847
944.0,-99218.0,-6250.0,690.8846153846155,2056.3076923076924,-62.23076923076923,40.0,-23.884615384615383
946.0,-99218.0,-6250.0,720.9230769230769,2056.5384615384614,-62.15384615384615,40.0,-23.923076923076923
948.0,-99218.0,-6250.0,750.9615384615385,2056.769230769231,-62.07692307692308,40.0,-23.96153846153846
950.0,-99233.03846153847,-6219.942307692308,750.9615384615385,2057.076923076923,-61.980769230769226,40.03846153846154,-24.0
952.0,-99278.15384615384,-6129.7692307692305,660.8461538461538,2057.3076923076924,-61.92307692307692,40.15384615384615,-24.0
954.0,-99308.23076923077,-6069.653846153846,600.7692307692307,2057.4615384615386,-61.88461538461539,40.23076923076923,-24.0
956.0,-99338.30769230769,-6009.538461538462,540.6923076923076,2057.6153846153848,-61.84615384615385,40.30769230769231,-24.0
958.0,-99368.38461538461,-5949.423076923077,480.6153846153846,2057.769230769231,-61.80769230769231,40.38461538461539,-24.0
960.0,-99398.46153846153,-5889.307692307692,420.53846153846155,2057.923076923077,-61.76923076923077,40.46153846153846,-24.0
962.0,-99428.53846153847,-5829.192307692308,360.46153846153845,2058.076923076923,-61.73076923076923,40.53846153846154,-24.0
964.0,-99458.61538461539,-5769.076923076923,300.38461538461536,2058.230769230769,-61.69230769230769,40.61538461538461,-24.0
966.0,-99488.69230769231,-5708.961538461538,240.30769230769226,2058.3846153846152,-61.65384615384615,40.69230769230769,-24.0
968.0,-99518.76923076923,-5648.846153846154,180.23076923076917,2058.5384615384614,-61.61538461538461,40.76923076923077,-24.0
970.0,-99548.84615384616,-5588.7307692307695,120.15384615384608,2058.6923076923076,-61.57692307692308,40.84615384615385,-24.0
972.0,-99578.92307692308,-5528.615384615385,60.076923076923094,2058.846153846154,-61.53846153846154,40.92307692307692,-24.0
974.0,-99609.0,-5468.5,0.0,2059.0,-61.5,41.0,-24.0
976.0,-99639.07692307692,-5408.384615384615,-60.076923076923094,2059.153846153846,-61.46153846153846,41.07692307692308,-24.0
978.0,-99669.15384615384,-5348.2692307692305,-120.15384615384619,2059.3076923076924,-61.42307692307692,41.15384615384615,-24.0
980.0,-99699.23076923077,-5288.153846153846,-180.23076923076928,2059.4615384615386,-61.38461538461539,41.23076923076923,-24.0
982.0,-99729.30769230769,-5228.038461538462,-240.30769230769238,2059.6153846153848,-61.34615384615385,41.30769230769231,-24.0
984.0,-99759.38461538461,-5167.923076923077,-300.3846153846155,2059.769230769231,-61.30769230769231,41.38461538461539,-24.0
986.0,-99789.46153846153,-5107.807692307692,-360.46153846153857,2059.923076923077,-61.26923076923077,41.46153846153846,-24.0
988.0,-99819.53846153847,-5047.692307692308,-420.53846153846166,2060.076923076923,-61.23076923076923,41.53846153846154,-24.0
990.0,-99849.61538461539,-4987.576923076923,-480.61538461538476,2060.230769230769,-61.19230769230769,41.61538461538461,-24.0
992.0,-99879.69230769231,-4927.461538461539,-540.6923076923078,2060.3846153846152,-61.15384615384615,41.69230769230769,-24.0
994.0,-99909.76923076923,-4867.346153846154,-600.769230769231,2060.5384615384614,-61.11538461538461,41.76923076923077,-24.0
996.0,-99939.84615384616,-4807.2307692307695,-660.8461538461538,2060.6923076923076,-61.07692307692308,41.84615384615385,-24.0
998.0,-99969.92307692308,-4747.115384615385,-720.9230769230769,2060.846153846154,-61.03846153846154,41.92307692307692,-24.0
1000.0,-100000.0,-4702.0192307692305,-796.0192307692307,2060.8076923076924,-61.019230769230774,41.96153846153846,-23.98076923076923
1002.0,-100000.0,-4747.076923076923,-841.0769230769231,2060.230769230769,-61.07692307692308,41.84615384615385,-23.923076923076923
1004.0,-100000.0,-4777.115384615385,-871.1153846153846,2059.846153846154,-61.11538461538461,41.76923076923077,-23.884615384615383
1006.0,-100000.0,-4807.153846153846,-901.1538461538462,2059.4615384615386,-61.15384615384615,41.69230769230769,-23.846153846153847
1008.0,-100000.0,-4837.192307692308,-931.1923076923077,2059.076923076923,-61.19230769230769,41.61538461538461,-23.807692307692307
1010.0,-100000.0,-4867.2307692307695,-961.2307692307693,2058.6923076923076,-61.23076923076923,41.53846153846154,-23.76923076923077
1012.0,-100000.0,-4897.2692307692305,-991.2692307692307,2058.3076923076924,-61.26923076923077,41.46153846153846,-23.73076923076923
1014.0,-100000.0,-4927.307692307692,-1021.3076923076924,2057.923076923077,-61.30769230769231,41.38461538461539,-23.692307692307693
1016.0,-100000.0,-4957.346153846154,-1051.3461538461538,2057.5384615384614,-61.34615384615385,41.30769230769231,-23.653846153846153
1018.0,-100000.0,-4987.384615384615,-1081.3846153846155,2057.153846153846,-61.38461538461539,41.23076923076923,-23.615384615384617
1020.0,-100000.0,-5017.423076923077,-1111.423076923077,2056.769230769231,-61.42307692307692,41.15384615384615,-23.576923076923077
1022.0,-100000.0,-5047.461538461538,-1141.4615384615386,2056.3846153846152,-61.46153846153846,41.07692307692308,-23.53846153846154
1024.0,-100000.0,-5077.5,-1171.5,2056.0,-61.5,41.0,-23.5
1026.0,-100000.0,-5107.538461538462,-1201.5384615384614,2055.6153846153848,-61.53846153846154,40.92307692307692,-23.46153846153846
1028.0,-100000.0,-5137.576923076923,-1231.576923076923,2055.230769230769,-61.57692307692308,40.84615384615385,-23.423076923076923
1030.0,-100000.0,-5167.615384615385,-1261.6153846153848,2054.846153846154,-61.61538461538461,40.76923076923077,-23.384615384615383
1032.0,-100000.0,-5197.653846153846,-1291.6538461538462,2054.4615384615386,-61.65384615384615,40.69230769230769,-23.346153846153847
1034.0,-100000.0,-5227.692307692308,-1321.6923076923076,2054.076923076923,-61.69230769230769,40.61538461538461,-23.307692307692307
1036.0,-100000.0,-5257.7307692307695,-1351.7307692307693,2053.6923076923076,-61.73076923076923,40.53846153846154,-23.26923076923077
1038.0,-100000.0,-5287.7692307692305,-1381.769230769231,2053.3076923076924,-61.76923076923077,40.46153846153846,-23.23076923076923
1040.0,-100000.0,-5317.807692307692,-1411.8076923076924,2052.923076923077,-61.80769230769231,40.38461538461539,-23.192307692307693
1042.0,-100000.0,-5347.846153846154,-1441.8461538461538,2052.5384615384614,-61.84615384615385,40.30769230769231,-23.153846153846153
1044.0,-100000.0,-5377.884615384615,-1471.8846153846155,2052.153846153846,-61.88461538461539,40.23076923076923,-23.115384615384617
1046.0,-100000.0,-5407.923076923077,-1501.923076923077,2051.769230769231,-61.92307692307692,40.15384615384615,-23.076923076923077
1048.0,-100000.0,-5437.961538461538,-1531.9615384615386,2051.3846153846152,-61.96153846153846,40.07692307692308,-23.03846153846154
1050.0,-100015.01923076923,-5437.961538461539,-1577.0192307692307,2050.9423076923076,-62.019230769230774,39.96153846153846,-23.01923076923077
1052.0,-100060.07692307692,-5347.846153846154,-1622.076923076923,2050.769230769231,-62.07692307692308,39.84615384615385,-23.076923076923077
1054.0,-100090.11538461539,-5287.7692307692305,-1652.1153846153845,2050.653846153846,-62.11538461538461,39.76923076923077,-23.115384615384617
1056.0,-100120.15384615384,-5227.692307692308,-1682.1538461538462,2050.5384615384614,-62.15384615384615,39.69230769230769,-23.153846153846153
1058.0,-100150.19230769231,-5167.615384615385,-1712.1923076923076,2050.423076923077,-62.19230769230769,39.61538461538461,-23.192307692307693
1060.0,-100180.23076923077,-5107.538461538462,-1742.2307692307693,2050.3076923076924,-62.23076923076923,39.53846153846154,-23.23076923076923
1062.0,-100210.26923076923,-5047.461538461538,-1772.2692307692307,2050.1923076923076,-62.26923076923077,39.46153846153846,-23.26923076923077
1064.0,-100240.30769230769,-4987.384615384615,-1802.3076923076924,2050.076923076923,-62.30769230769231,39.38461538461539,-23.307692307692307
1066.0,-100270.34615384616,-4927.307692307692,-1832.3461538461538,2049.9615384615386,-62.34615384615385,39.30769230769231,-23.346153846153847
1068.0,-100300.38461538461,-4867.2307692307695,-1862.3846153846155,2049.846153846154,-62.38461538461539,39.23076923076923,-23.384615384615383
1070.0,-100330.42307692308,-4807.153846153846,-1892.423076923077,2049.730769230769,-62.42307692307692,39.15384615384615,-23.423076923076923
1072.0,-100360.46153846153,-4747.076923076923,-1922.4615384615386,2049.6153846153848,-62.46153846153846,39.07692307692308,-23.46153846153846
1074.0,-100390.5,-4687.0,-1952.5,2049.5,-62.5,39.0,-23.5
1076.0,-100420.53846153847,-4626.923076923077,-1982.5384615384614,2049.3846153846152,-62.53846153846154,38.92307692307692,-23.53846153846154
1078.0,-100450.57692307692,-4566.846153846154,-2012.576923076923,2049.269230769231,-62.57692307692308,38.84615384615385,-23.576923076923077
1080.0,-100480.61538461539,-4506.7692307692305,-2042.6153846153848,2049.153846153846,-62.61538461538461,38.76923076923077,-23.615384615384617
1082.0,-100510.65384615384,-4446.692307692308,-2072.653846153846,2049.0384615384614,-62.65384615384615,38.69230769230769,-23.653846153846153
1084.0,-100540.69230769231,-4386.615384615385,-2102.6923076923076,2048.923076923077,-62.69230769230769,38.61538461538461,-23.692307692307693
1086.0,-100570.73076923077,-4326.538461538461,-2132.7307692307695,2048.8076923076924,-62.73076923076923,38.53846153846154,-23.73076923076923
1088.0,-100600.76923076923,-4266.461538461538,-2162.769230769231,2048.6923076923076,-62.76923076923077,38.46153846153846,-23.76923076923077
1090.0,-100630.80769230769,-4206.384615384615,-2192.8076923076924,2048.576923076923,-62.80769230769231,38.38461538461539,-23.807692307692307
1092.0,-100660.84615384616,-4146.307692307692,-2222.846153846154,2048.4615384615386,-62.84615384615385,38.30769230769231,-23.846153846153847
1094.0,-100690.88461538461,-4086.230769230769,-2252.8846153846152,2048.346153846154,-62.88461538461539,38.23076923076923,-23.884615384615383
1096.0,-100720.92307692308,-4026.153846153846,-2282.923076923077,2048.230769230769,-62.92307692307692,38.15384615384615,-23.923076923076923
1098.0,-100750.96153846153,-3966.076923076923,-2312.9615384615386,2048.1153846153848,-62.96153846153846,38.07692307692308,-23.96153846153846
1100.0,-100781.0,-3921.0192307692305,-2327.9807692307695,2048.076923076923,-63.019230769230774,37.96153846153846,-23.98076923076923
1102.0,-100781.0,-3966.076923076923,-2282.923076923077,2048.3076923076924,-63.07692307692308,37.84615384615385,-23.923076923076923
1104.0,-100781.0,-3996.1153846153848,-2252.8846153846152,2048.4615384615386,-63.11538461538461,37.76923076923077,-23.884615384615383
1106.0,-100781.0,-4026.153846153846,-2222.846153846154,2048.6153846153848,-63.15384615384615,37.69230769230769,-23.846153846153847
1108.0,-100781.0,-4056.1923076923076,-2192.8076923076924,2048.769230769231,-63.19230769230769,37.61538461538461,-23.807692307692307
1110.0,-100781.0,-4086.230769230769,-2162.769230769231,2048.923076923077,-63.23076923076923,37.53846153846154,-23.76923076923077
1112.0,-100781.0,-4116.2692307692305,-2132.730769230769,2049.076923076923,-63.26923076923077,37.46153846153846,-23.73076923076923
1114.0,-100781.0,-4146.307692307692,-2102.6923076923076,2049.230769230769,-63.30769230769231,37.38461538461539,-23.692307692307693
1116.0,-100781.0,-4176.346153846154,-2072.653846153846,2049.3846153846152,-63.34615384615385,37.30769230769231,-23.653846153846153
1118.0,-100781.0,-4206.384615384615,-2042.6153846153845,2049.5384615384614,-63.38461538461539,37.23076923076923,-23.615384615384617
1120.0,-100781.0,-4236.423076923077,-2012.576923076923,2049.6923076923076,-63.42307692307692,37.15384615384615,-23.576923076923077
1122.0,-100781.0,-4266.461538461538,-1982.5384615384614,2049.846153846154,-63.46153846153846,37.07692307692308,-23.53846153846154
1124.0,-100781.0,-4296.5,-1952.5,2050.0,-63.5,37.0,-23.5
1126.0,-100781.0,-4326.538461538462,-1922.4615384615386,2050.153846153846,-63.53846153846154,36.92307692307692,-23.46153846153846
1128.0,-100781.0,-4356.576923076923,-1892.423076923077,2050.3076923076924,-63.57692307692308,36.84615384615385,-23.423076923076923
1130.0,-100781.0,-4386.615384615385,-1862.3846153846152,2050.4615384615386,-63.61538461538461,36.76923076923077,-23.384615384615383
1132.0,-100781.0,-4416.653846153846,-1832.3461538461538,2050.6153846153848,-63.65384615384615,36.69230769230769,-23.346153846153847
1134.0,-100781.0,-4446.692307692308,-1802.3076923076924,2050.769230769231,-63.69230769230769,36.61538461538461,-23.307692307692307
1136.0,-100781.0,-4476.7307692307695,-1772.2692307692307,2050.923076923077,-63.73076923076923,36.53846153846154,-23.26923076923077
1138.0,-100781.0,-4506.7692307692305,-1742.230769230769,2051.076923076923,-63.76923076923077,36.46153846153846,-23.23076923076923
1140.0,-100781.0,-4536.807692307692,-1712.1923076923076,2051.230769230769,-63.80769230769231,36.38461538461539,-23.192307692307693
1142.0,-100781.0,-4566.846153846154,-1682.1538461538462,2051.3846153846152,-63.84615384615385,36.30769230769231,-23.153846153846153
1144.0,-100781.0,-4596.884615384615,-1652.1153846153845,2051.5384615384614,-63.88461538461539,36.23076923076923,-23.115384615384617
1146.0,-100781.0,-4626.923076923077,-1622.076923076923,2051.6923076923076,-63.92307692307692,36.15384615384615,-23.076923076923077
1148.0,-100781.0,-4656.961538461538,-1592.0384615384614,2051.846153846154,-63.96153846153846,36.07692307692308,-23.03846153846154
1150.0,-100765.98076923077,-4702.0192307692305,-1562.0,2051.9423076923076,-64.01923076923077,35.96153846153846,-23.0
1152.0,-100720.92307692308,-4747.076923076923,-1562.0,2051.769230769231,-64.07692307692308,35.84615384615385,-23.0
1154.0,-100690.88461538461,-4777.115384615385,-1562.0,2051.653846153846,-64.11538461538461,35.76923076923077,-23.0
1156.0,-100660.84615384616,-4807.153846153846,-1562.0,2051.5384615384614,-64.15384615384616,35.69230769230769,-23.0
1158.0,-100630.80769230769,-4837.192307692308,-1562.0,2051.423076923077,-64.1923076923077,35.61538461538461,-23.0
1160.0,-100600.76923076923,-4867.2307692307695,-1562.0,2051.3076923076924,-64.23076923076923,35.53846153846154,-23.0
1162.0,-100570.73076923077,-4897.2692307692305,-1562.0,2051.1923076923076,-64.26923076923077,35.46153846153846,-23.0
1164.0,-100540.69230769231,-4927.307692307692,-1562.0,2051.076923076923,-64.3076923076923,35.38461538461539,-23.0
1166.0,-100510.65384615384,-4957.346153846154,-1562.0,2050.9615384615386,-64.34615384615384,35.30769230769231,-23.0
1168.0,-100480.61538461539,-4987.384615384615,-1562.0,2050.846153846154,-64.38461538461539,35.23076923076923,-23.0
1170.0,-100450.57692307692,-5017.423076923077,-1562.0,2050.730769230769,-64.42307692307692,35.15384615384615,-23.0
1172.0,-100420.53846153847,-5047.461538461538,-1562.0,2050.6153846153848,-64.46153846153847,35.07692307692308,-23.0
1174.0,-100390.5,-5077.5,-1562.0,2050.5,-64.5,35.0,-23.0
1176.0,-100360.46153846153,-5107.538461538462,-1562.0,2050.3846153846152,-64.53846153846153,34.92307692307692,-23.0
1178.0,-100330.42307692308,-5137.576923076923,-1562.0,2050.269230769231,-64.57692307692308,34.84615384615385,-23.0
1180.0,-100300.38461538461,-5167.615384615385,-1562.0,2050.153846153846,-64.61538461538461,34.76923076923077,-23.0
1182.0,-100270.34615384616,-5197.653846153846,-1562.0,2050.0384615384614,-64.65384615384616,34.69230769230769,-23.0
1184.0,-100240.30769230769,-5227.692307692308,-1562.0,2049.923076923077,-64.6923076923077,34.61538461538461,-23.0
1186.0,-100210.26923076923,-5257.7307692307695,-1562.0,2049.8076923076924,-64.73076923076923,34.53846153846154,-23.0
1188.0,-100180.23076923077,-5287.7692307692305,-1562.0,2049.6923076923076,-64.76923076923077,34.46153846153846,-23.0
1190.0,-100150.19230769231,-5317.807692307692,-1562.0,2049.576923076923,-64.8076923076923,34.38461538461539,-23.0
1192.0,-100120.15384615384,-5347.846153846154,-1562.0,2049.4615384615386,-64.84615384615384,34.30769230769231,-23.0
1194.0,-100090.11538461539,-5377.884615384615,-1562.0,2049.346153846154,-64.88461538461539,34.23076923076923,-23.0
1196.0,-100060.07692307692,-5407.923076923077,-1562.0,2049.230769230769,-64.92307692307692,34.15384615384615,-23.0
1198.0,-100030.03846153847,-5437.961538461538,-1562.0,2049.1153846153848,-64.96153846153847,34.07692307692308,-23.0
1200.0,-99984.96153846153,-5468.0,-1546.9807692307693,2049.153846153846,-65.0,34.0,-23.01923076923077
1202.0,-99939.84615384616,-5468.0,-1501.923076923077,2049.6153846153848,-65.0,34.0,-23.076923076923077
1204.0,-99909.76923076923,-5468.0,-1471.8846153846155,2049.923076923077,-65.0,34.0,-23.115384615384617
1206.0,-99879.69230769231,-5468.0,-1441.8461538461538,2050.230769230769,-65.0,34.0,-23.153846153846153
1208.0,-99849.61538461539,-5468.0,-1411.8076923076924,2050.5384615384614,-65.0,34.0,-23.192307692307693
1210.0,-99819.53846153847,-5468.0,-1381.7692307692307,2050.846153846154,-65.0,34.0,-23.23076923076923
1212.0,-99789.46153846153,-5468.0,-1351.7307692307693,2051.153846153846,-65.0,34.0,-23.26923076923077
1214.0,-99759.38461538461,-5468.0,-1321.6923076923076,2051.4615384615386,-65.0,34.0,-23.307692307692307
1216.0,-99729.30769230769,-5468.0,-1291.6538461538462,2051.769230769231,-65.0,34.0,-23.346153846153847
1218.0,-99699.23076923077,-5468.0,-1261.6153846153845,2052.076923076923,-65.0,34.0,-23.384615384615383
1220.0,-99669.15384615384,-5468.0,-1231.576923076923,2052.3846153846152,-65.0,34.0,-23.423076923076923
1222.0,-99639.07692307692,-5468.0,-1201.5384615384614,2052.6923076923076,-65.0,34.0,-23.46153846153846
1224.0,-99609.0,-5468.0,-1171.5,2053.0,-65.0,34.0,-23.5
1226.0,-99578.92307692308,-5468.0,-1141.4615384615386,2053.3076923076924,-65.0,34.0,-23.53846153846154
1228.0,-99548.84615384616,-5468.0,-1111.423076923077,2053.6153846153848,-65.0,34.0,-23.576923076923077
1230.0,-99518.76923076923,-5468.0,-1081.3846153846152,2053.923076923077,-65.0,34.0,-23.615384615384617
1232.0,-99488.69230769231,-5468.0,-1051.3461538461538,2054.230769230769,-65.0,34.0,-23.653846153846153
1234.0,-99458.61538461539,-5468.0,-1021.3076923076923,2054.5384615384614,-65.0,34.0,-23.692307692307693
1236.0,-99428.53846153847,-5468.0,-991.2692307692307,2054.846153846154,-65.0,34.0,-23.73076923076923
1238.0,-99398.46153846153,-5468.0,-961.2307692307692,2055.153846153846,-65.0,34.0,-23.76923076923077
1240.0,-99368.38461538461,-5468.0,-931.1923076923076,2055.4615384615386,-65.0,34.0,-23.807692307692307
1242.0,-99338.30769230769,-5468.0,-901.1538461538461,2055.769230769231,-65.0,34.0,-23.846153846153847
1244.0,-99308.23076923077,-5468.0,-871.1153846153845,2056.076923076923,-65.0,34.0,-23.884615384615383
1246.0,-99278.15384615384,-5468.0,-841.0769230769231,2056.3846153846152,-65.0,34.0,-23.923076923076923
1248.0,-99248.07692307692,-5468.0,-811.0384615384615,2056.6923076923076,-65.0,34.0,-23.96153846153846
1250.0,-99233.03846153847,-5498.057692307692,-781.0,2056.846153846154,-64.98076923076923,33.980769230769226,-24.03846153846154
1252.0,-99278.15384615384,-5588.2307692307695,-781.0,2056.3846153846152,-64.92307692307692,33.92307692307692,-24.153846153846153
1254.0,-99308.23076923077,-5648.346153846154,-781.0,2056.076923076923,-64.88461538461539,33.88461538461539,-24.23076923076923
1256.0,-99338.30769230769,-5708.461538461538,-781.0,2055.769230769231,-64.84615384615384,33.84615384615385,-24.307692307692307
1258.0,-99368.38461538461,-5768.576923076923,-781.0,2055.4615384615386,-64.8076923076923,33.80769230769231,-24.384615384615383
1260.0,-99398.46153846153,-5828.692307692308,-781.0,2055.153846153846,-64.76923076923077,33.76923076923077,-24.46153846153846
1262.0,-99428.53846153847,-5888.807692307692,-781.0,2054.846153846154,-64.73076923076923,33.73076923076923,-24.53846153846154
1264.0,-99458.61538461539,-5948.923076923077,-781.0,2054.5384615384614,-64.6923076923077,33.69230769230769,-24.615384615384617
1266.0,-99488.69230769231,-6009.038461538462,-781.0,2054.230769230769,-64.65384615384616,33.65384615384615,-24.692307692307693
1268.0,-99518.76923076923,-6069.153846153846,-781.0,2053.923076923077,-64.61538461538461,33.61538461538461,-24.76923076923077
1270.0,-99548.84615384616,-6129.2692307692305,-781.0,2053.6153846153848,-64.57692307692308,33.57692307692308,-24.846153846153847
1272.0,-99578.92307692308,-6189.384615384615,-781.0,2053.3076923076924,-64.53846153846153,33.53846153846154,-24.923076923076923
1274.0,-99609.0,-6249.5,-781.0,2053.0,-64.5,33.5,-25.0
1276.0,-99639.07692307692,-6309.615384615385,-781.0,2052.6923076923076,-64.46153846153847,33.46153846153846,-25.076923076923077
1278.0,-99669.15384615384,-6369.7307692307695,-781.0,2052.3846153846152,-64.42307692307692,33.42307692307692,-25.153846153846153
1280.0,-99699.23076923077,-6429.846153846154,-781.0,2052.076923076923,-64.38461538461539,33.38461538461539,-25.23076923076923
1282.0,-99729.30769230769,-6489.961538461538,-781.0,2051.769230769231,-64.34615384615384,33.34615384615385,-25.307692307692307
1284.0,-99759.38461538461,-6550.076923076923,-781.0,2051.4615384615386,-64.3076923076923,33.30769230769231,-25.384615384615383
1286.0,-99789.46153846153,-6610.192307692308,-781.0,2051.153846153846,-64.26923076923077,33.26923076923077,-25.46153846153846
1288.0,-99819.53846153847,-6670.307692307692,-781.0,2050.846153846154,-64.23076923076923,33.23076923076923,-25.53846153846154
1290.0,-99849.61538461539,-6730.423076923077,-781.0,2050.5384615384614,-64.1923076923077,33.19230769230769,-25.615384615384617
1292.0,-99879.69230769231,-6790.538461538461,-781.0,2050.230769230769,-64.15384615384616,33.15384615384615,-25.692307692307693
1294.0,-99909.76923076923,-6850.653846153846,-781.0,2049.923076923077,-64.11538461538461,33.11538461538461,-25.76923076923077
1296.0,-99939.84615384616,-6910.7692307692305,-781.0,2049.6153846153848,-64.07692307692308,33.07692307692308,-25.846153846153847
1298.0,-99969.92307692308,-6970.884615384615,-781.0,2049.3076923076924,-64.03846153846153,33.03846153846154,-25.923076923076923
1300.0,-100000.0,-7000.942307692308,-765.9807692307693,2049.0384615384614,-63.980769230769226,32.980769230769226,-26.01923076923077
1302.0,-100000.0,-6910.7692307692305,-720.9230769230769,2049.153846153846,-63.92307692307692,32.92307692307692,-26.076923076923077
1304.0,-100000.0,-6850.653846153846,-690.8846153846154,2049.230769230769,-63.88461538461539,32.88461538461539,-26.115384615384617
1306.0,-100000.0,-6790.538461538462,-660.8461538461538,2049.3076923076924,-63.84615384615385,32.84615384615385,-26.153846153846153
1308.0,-100000.0,-6730.423076923077,-630.8076923076923,2049.3846153846152,-63.80769230769231,32.80769230769231,-26.192307692307693
1310.0,-100000.0,-6670.307692307692,-600.7692307692307,2049.4615384615386,-63.76923076923077,32.76923076923077,-26.23076923076923
1312.0,-100000.0,-6610.192307692308,-570.7307692307693,2049.5384615384614,-63.73076923076923,32.73076923076923,-26.26923076923077
1314.0,-100000.0,-6550.076923076923,-540.6923076923076,2049.6153846153848,-63.69230769230769,32.69230769230769,-26.307692307692307
1316.0,-100000.0,-6489.961538461538,-510.65384615384613,2049.6923076923076,-63.65384615384615,32.65384615384615,-26.346153846153847
1318.0,-100000.0,-6429.846153846154,-480.6153846153846,2049.769230769231,-63.61538461538461,32.61538461538461,-26.384615384615383
1320.0,-100000.0,-6369.7307692307695,-450.57692307692304,2049.846153846154,-63.57692307692308,32.57692307692308,-26.423076923076923
1322.0,-100000.0,-6309.615384615385,-420.53846153846155,2049.923076923077,-63.53846153846154,32.53846153846154,-26.46153846153846
1324.0,-100000.0,-6249.5,-390.5,2050.0,-63.5,32.5,-26.5
1326.0,-100000.0,-6189.384615384615,-360.46153846153845,2050.076923076923,-63.46153846153846,32.46153846153846,-26.53846153846154
1328.0,-100000.0,-6129.2692307692305,-330.4230769230769,2050.153846153846,-63.42307692307692,32.42307692307692,-26.576923076923077
1330.0,-100000.0,-6069.153846153846,-300.38461538461536,2050.230769230769,-63.38461538461539,32.38461538461539,-26.615384615384617
1332.0,-100000.0,-6009.038461538462,-270.3461538461538,2050.3076923076924,-63.34615384615385,32.34615384615385,-26.653846153846153
1334.0,-100000.0,-5948.923076923077,-240.30769230769226,2050.3846153846152,-63.30769230769231,32.30769230769231,-26.692307692307693
1336.0,-100000.0,-5888.807692307692,-210.26923076923072,2050.4615384615386,-63.26923076923077,32.26923076923077,-26.73076923076923
1338.0,-100000.0,-5828.692307692308,-180.23076923076917,2050.5384615384614,-63.23076923076923,32.23076923076923,-26.76923076923077
1340.0,-100000.0,-5768.576923076923,-150.19230769230762,2050.6153846153848,-63.19230769230769,32.19230769230769,-26.807692307692307
1342.0,-100000.0,-5708.461538461539,-120.15384615384608,2050.6923076923076,-63.15384615384615,32.15384615384615,-26.846153846153847
1344.0,-100000.0,-5648.346153846154,-90.11538461538453,2050.769230769231,-63.11538461538461,32.11538461538461,-26.884615384615383
1346.0,-100000.0,-5588.2307692307695,-60.076923076923094,2050.846153846154,-63.07692307692308,32.07692307692308,-26.923076923076923
1348.0,-100000.0,-5528.115384615385,-30.038461538461547,2050.923076923077,-63.03846153846154,32.03846153846154,-26.96153846153846
1350.0,-99984.96153846153,-5483.038461538461,0.0,2051.1153846153848,-62.96153846153846,31.98076923076923,-27.0
1352.0,-99939.84615384616,-5528.153846153846,0.0,2051.4615384615386,-62.84615384615385,31.923076923076923,-27.0
1354.0,-99909.76923076923,-5558.2307692307695,0.0,2051.6923076923076,-62.76923076923077,31.884615384615383,-27.0
1356.0,-99879.69230769231,-5588.307692307692,0.0,2051.923076923077,-62.69230769230769,31.846153846153847,-27.0
1358.0,-99849.61538461539,-5618.384615384615,0.0,2052.153846153846,-62.61538461538461,31.807692307692307,-27.0
1360.0,-99819.53846153847,-5648.461538461538,0.0,2052.3846153846152,-62.53846153846154,31.76923076923077,-27.0
1362.0,-99789.46153846153,-5678.538461538462,0.0,2052.6153846153848,-62.46153846153846,31.73076923076923,-27.0
1364.0,-99759.38461538461,-5708.615384615385,0.0,2052.846153846154,-62.38461538461539,31.692307692307693,-27.0
1366.0,-99729.30769230769,-5738.692307692308,0.0,2053.076923076923,-62.30769230769231,31.653846153846153,-27.0
1368.0,-99699.23076923077,-5768.7692307692305,0.0,2053.3076923076924,-62.23076923076923,31.615384615384617,-27.0
1370.0,-99669.15384615384,-5798.846153846154,0.0,2053.5384615384614,-62.15384615384615,31.576923076923077,-27.0
1372.0,-99639.07692307692,-5828.923076923077,0.0,2053.769230769231,-62.07692307692308,31.53846153846154,-27.0
1374.0,-99609.0,-5859.0,0.0,2054.0,-62.0,31.5,-27.0
1376.0,-99578.92307692308,-5889.076923076923,0.0,2054.230769230769,-61.92307692307692,31.46153846153846,-27.0
1378.0,-99548.84615384616,-5919.153846153846,0.0,2054.4615384615386,-61.84615384615385,31.423076923076923,-27.0
1380.0,-99518.76923076923,-5949.2307692307695,0.0,2054.6923076923076,-61.76923076923077,31.384615384615383,-27.0
1382.0,-99488.69230769231,-5979.307692307692,0.0,2054.923076923077,-61.69230769230769,31.346153846153847,-27.0
1384.0,-99458.61538461539,-6009.384615384615,0.0,2055.153846153846,-61.61538461538461,31.307692307692307,-27.0
1386.0,-99428.53846153847,-6039.461538461538,0.0,2055.3846153846152,-61.53846153846154,31.26923076923077,-27.0
1388.0,-99398.46153846153,-6069.538461538462,0.0,2055.6153846153848,-61.46153846153846,31.23076923076923,-27.0
1390.0,-99368.38461538461,-6099.615384615385,0.0,2055.846153846154,-61.38461538461539,31.192307692307693,-27.0
1392.0,-99338.30769230769,-6129.692307692308,0.0,2056.076923076923,-61.30769230769231,31.153846153846153,-27.0
1394.0,-99308.23076923077,-6159.7692307692305,0.0,2056.3076923076924,-61.23076923076923,31.115384615384617,-27.0
1396.0,-99278.15384615384,-6189.846153846154,0.0,2056.5384615384614,-61.15384615384615,31.076923076923077,-27.0
1398.0,-99248.07692307692,-6219.923076923077,0.0,2056.769230769231,-61.07692307692308,31.03846153846154,-27.0
1400.0,-99218.0,-6234.961538461539,15.01923076923077,2056.7115384615386,-60.980769230769226,30.98076923076923,-27.0
1402.0,-99218.0,-6189.846153846154,60.07692307692308,2055.846153846154,-60.92307692307692,30.923076923076923,-27.0
1404.0,-99218.0,-6159.7692307692305,90.11538461538461,2055.269230769231,-60.88461538461539,30.884615384615383,-27.0
1406.0,-99218.0,-6129.692307692308,120.15384615384616,2054.6923076923076,-60.84615384615385,30.846153846153847,-27.0
1408.0,-99218.0,-6099.615384615385,150.1923076923077,2054.1153846153848,-60.80769230769231,30.807692307692307,-27.0
1410.0,-99218.0,-6069.538461538462,180.23076923076923,2053.5384615384614,-60.76923076923077,30.76923076923077,-27.0
1412.0,-99218.0,-6039.461538461538,210.26923076923077,2052.9615384615386,-60.73076923076923,30.73076923076923,-27.0
1414.0,-99218.0,-6009.384615384615,240.30769230769232,2052.3846153846152,-60.69230769230769,30.692307692307693,-27.0
1416.0,-99218.0,-5979.307692307692,270.34615384615387,2051.8076923076924,-60.65384615384615,30.653846153846153,-27.0
1418.0,-99218.0,-5949.2307692307695,300.3846153846154,2051.230769230769,-60.61538461538461,30.615384615384617,-27.0
1420.0,-99218.0,-5919.153846153846,330.42307692307696,2050.653846153846,-60.57692307692308,30.576923076923077,-27.0
1422.0,-99218.0,-5889.076923076923,360.46153846153845,2050.076923076923,-60.53846153846154,30.53846153846154,-27.0
1424.0,-99218.0,-5859.0,390.5,2049.5,-60.5,30.5,-27.0
1426.0,-99218.0,-5828.923076923077,420.53846153846155,2048.923076923077,-60.46153846153846,30.46153846153846,-27.0
1428.0,-99218.0,-5798.846153846154,450.5769230769231,2048.346153846154,-60.42307692307692,30.423076923076923,-27.0
1430.0,-99218.0,-5768.7692307692305,480.61538461538464,2047.7692307692307,-60.38461538461539,30.384615384615383,-27.0
1432.0,-99218.0,-5738.692307692308,510.6538461538462,2047.1923076923076,-60.34615384615385,30.346153846153847,-27.0
1434.0,-99218.0,-5708.615384615385,540.6923076923077,2046.6153846153845,-60.30769230769231,30.307692307692307,-27.0
1436.0,-99218.0,-5678.538461538462,570.7307692307693,2046.0384615384614,-60.26923076923077,30.26923076923077,-27.0
1438.0,-99218.0,-5648.461538461538,600.7692307692308,2045.4615384615386,-60.23076923076923,30.23076923076923,-27.0
1440.0,-99218.0,-5618.384615384615,630.8076923076924,2044.8846153846155,-60.19230769230769,30.192307692307693,-27.0
1442.0,-99218.0,-5588.307692307692,660.8461538461539,2044.3076923076924,-60.15384615384615,30.153846153846153,-27.0
1444.0,-99218.0,-5558.2307692307695,690.8846153846155,2043.7307692307693,-60.11538461538461,30.115384615384617,-27.0
1446.0,-99218.0,-5528.153846153846,720.9230769230769,2043.1538461538462,-60.07692307692308,30.076923076923077,-27.0
1448.0,-99218.0,-5498.076923076923,750.9615384615385,2042.576923076923,-60.03846153846154,30.03846153846154,-27.0
1450.0,-99187.96153846153,-5498.057692307692,781.0,2042.173076923077,-59.92307692307692,30.076923076923077,-27.01923076923077
1452.0,-99097.84615384616,-5588.2307692307695,781.0,2042.6923076923076,-59.69230769230769,30.307692307692307,-27.076923076923077
1454.0,-99037.76923076923,-5648.346153846154,781.0,2043.0384615384614,-59.53846153846154,30.46153846153846,-27.115384615384617
1456.0,-98977.69230769231,-5708.461538461538,781.0,2043.3846153846155,-59.38461538461539,30.615384615384617,-27.153846153846153
1458.0,-98917.61538461539,-5768.576923076923,781.0,2043.7307692307693,-59.23076923076923,30.76923076923077,-27.192307692307693
1460.0,-98857.53846153847,-5828.692307692308,781.0,2044.076923076923,-59.07692307692308,30.923076923076923,-27.23076923076923
1462.0,-98797.46153846153,-5888.807692307692,781.0,2044.423076923077,-58.92307692307692,31.076923076923077,-27.26923076923077
1464.0,-98737.38461538461,-5948.923076923077,781.0,2044.7692307692307,-58.76923076923077,31.23076923076923,-27.307692307692307
1466.0,-98677.30769230769,-6009.038461538462,781.0,2045.1153846153845,-58.61538461538461,31.384615384615383,-27.346153846153847
1468.0,-98617.23076923077,-6069.153846153846,781.0,2045.4615384615386,-58.46153846153846,31.53846153846154,-27.384615384615383
1470.0,-98557.15384615384,-6129.2692307692305,781.0,2045.8076923076924,-58.30769230769231,31.692307692307693,-27.423076923076923
1472.0,-98497.07692307692,-6189.384615384615,781.0,2046.1538461538462,-58.15384615384615,31.846153846153847,-27.46153846153846
1474.0,-98437.0,-6249.5,781.0,2046.5,-58.0,32.0,-27.5
1476.0,-98376.92307692308,-6309.615384615385,781.0,2046.8461538461538,-57.84615384615385,32.15384615384615,-27.53846153846154
1478.0,-98316.84615384616,-6369.7307692307695,781.0,2047.1923076923076,-57.69230769230769,32.30769230769231,-27.576923076923077
1480.0,-98256.76923076923,-6429.846153846154,781.0,2047.5384615384614,-57.53846153846154,32.46153846153846,-27.615384615384617
1482.0,-98196.69230769231,-6489.961538461538,781.0,2047.8846153846155,-57.38461538461539,32.61538461538461,-27.653846153846153
1484.0,-98136.61538461539,-6550.076923076923,781.0,2048.230769230769,-57.23076923076923,32.76923076923077,-27.692307692307693
1486.0,-98076.53846153847,-6610.192307692308,781.0,2048.576923076923,-57.07692307692308,32.92307692307692,-27.73076923076923
1488.0,-98016.46153846153,-6670.307692307692,781.0,2048.923076923077,-56.92307692307692,33.07692307692308,-27.76923076923077
1490.0,-97956.38461538461,-6730.423076923077,781.0,2049.269230769231,-56.76923076923077,33.23076923076923,-27.807692307692307
1492.0,-97896.30769230769,-6790.538461538461,781.0,2049.6153846153848,-56.61538461538461,33.38461538461539,-27.846153846153847
1494.0,-97836.23076923077,-6850.653846153846,781.0,2049.9615384615386,-56.46153846153846,33.53846153846154,-27.884615384615383
1496.0,-97776.15384615384,-6910.7692307692305,781.0,2050.3076923076924,-56.30769230769231,33.69230769230769,-27.923076923076923
1498.0,-97716.07692307692,-6970.884615384615,781.0,2050.653846153846,-56.15384615384615,33.84615384615385,-27.96153846153846
1500.0,-97671.01923076923,-7015.9807692307695,781.0,2050.846153846154,-55.92307692307692,34.05769230769231,-28.0
1502.0,-97716.07692307692,-6970.923076923077,781.0,2050.3846153846152,-55.69230769230769,34.23076923076923,-28.0
1504.0,-97746.11538461539,-6940.884615384615,781.0,2050.076923076923,-55.53846153846154,34.34615384615385,-28.0
1506.0,-97776.15384615384,-6910.846153846154,781.0,2049.769230769231,-55.38461538461539,34.46153846153846,-28.0
1508.0,-97806.19230769231,-6880.807692307692,781.0,2049.4615384615386,-55.23076923076923,34.57692307692308,-28.0
1510.0,-97836.23076923077,-6850.7692307692305,781.0,2049.153846153846,-55.07692307692308,34.69230769230769,-28.0
1512.0,-97866.26923076923,-6820.7307692307695,781.0,2048.846153846154,-54.92307692307692,34.80769230769231,-28.0
1514.0,-97896.30769230769,-6790.692307692308,781.0,2048.5384615384614,-54.76923076923077,34.92307692307692,-28.0
1516.0,-97926.34615384616,-6760.653846153846,781.0,2048.230769230769,-54.61538461538461,35.03846153846154,-28.0
1518.0,-97956.38461538461,-6730.615384615385,781.0,2047.923076923077,-54.46153846153846,35.15384615384615,-28.0
1520.0,-97986.42307692308,-6700.576923076923,781.0,2047.6153846153845,-54.30769230769231,35.26923076923077,-28.0
1522.0,-98016.46153846153,-6670.538461538462,781.0,2047.3076923076924,-54.15384615384615,35.38461538461539,-28.0
1524.0,-98046.5,-6640.5,781.0,2047.0,-54.0,35.5,-28.0
1526.0,-98076.53846153847,-6610.461538461538,781.0,2046.6923076923076,-53.84615384615385,35.61538461538461,-28.0
1528.0,-98106.57692307692,-6580.423076923077,781.0,2046.3846153846155,-53.69230769230769,35.73076923076923,-28.0
1530.0,-98136.61538461539,-6550.384615384615,781.0,2046.076923076923,-53.53846153846154,35.84615384615385,-28.0
1532.0,-98166.65384615384,-6520.346153846154,781.0,2045.7692307692307,-53.38461538461539,35.96153846153846,-28.0
1534.0,-98196.69230769231,-6490.307692307692,781.0,2045.4615384615386,-53.23076923076923,36.07692307692308,-28.0
1536.0,-98226.73076923077,-6460.2692307692305,781.0,2045.1538461538462,-53.07692307692308,36.19230769230769,-28.0
1538.0,-98256.76923076923,-6430.2307692307695,781.0,2044.8461538461538,-52.92307692307692,36.30769230769231,-28.0
1540.0,-98286.80769230769,-6400.192307692308,781.0,2044.5384615384614,-52.76923076923077,36.42307692307692,-28.0
1542.0,-98316.84615384616,-6370.153846153846,781.0,2044.2307692307693,-52.61538461538461,36.53846153846154,-28.0
1544.0,-98346.88461538461,-6340.115384615385,781.0,2043.923076923077,-52.46153846153846,36.65384615384615,-28.0
1546.0,-98376.92307692308,-6310.076923076923,781.0,2043.6153846153845,-52.30769230769231,36.76923076923077,-28.0
1548.0,-98406.96153846153,-6280.038461538462,781.0,2043.3076923076924,-52.15384615384615,36.88461538461539,-28.0
1550.0,-98437.0,-6250.0,826.0769230769231,2043.2884615384614,-51.90384615384615,37.07692307692308,-28.0
1552.0,-98437.0,-6250.0,961.3076923076924,2044.1538461538462,-51.61538461538461,37.30769230769231,-28.0
1554.0,-98437.0,-6250.0,1051.4615384615386,2044.7307692307693,-51.42307692307692,37.46153846153846,-28.0
1556.0,-98437.0,-6250.0,1141.6153846153848,2045.3076923076924,-51.23076923076923,37.61538461538461,-28.0
1558.0,-98437.0,-6250.0,1231.769230769231,2045.8846153846155,-51.03846153846154,37.76923076923077,-28.0
1560.0,-98437.0,-6250.0,1321.923076923077,2046.4615384615386,-50.84615384615385,37.92307692307692,-28.0
1562.0,-98437.0,-6250.0,1412.076923076923,2047.0384615384614,-50.65384615384615,38.07692307692308,-28.0
1564.0,-98437.0,-6250.0,1502.2307692307693,2047.6153846153845,-50.46153846153846,38.23076923076923,-28.0
1566.0,-98437.0,-6250.0,1592.3846153846155,2048.1923076923076,-50.26923076923077,38.38461538461539,-28.0
1568.0,-98437.0,-6250.0,1682.5384615384617,2048.769230769231,-50.07692307692308,38.53846153846154,-28.0
1570.0,-98437.0,-6250.0,1772.6923076923076,2049.346153846154,-49.88461538461539,38.69230769230769,-28.0
1572.0,-98437.0,-6250.0,1862.8461538461538,2049.923076923077,-49.69230769230769,38.84615384615385,-28.0
1574.0,-98437.0,-6250.0,1953.0,2050.5,-49.5,39.0,-28.0
1576.0,-98437.0,-6250.0,2043.1538461538462,2051.076923076923,-49.30769230769231,39.15384615384615,-28.0
1578.0,-98437.0,-6250.0,2133.3076923076924,2051.653846153846,-49.11538461538461,39.30769230769231,-28.0
1580.0,-98437.0,-6250.0,2223.4615384615386,2052.230769230769,-48.92307692307692,39.46153846153846,-28.0
1582.0,-98437.0,-6250.0,2313.6153846153848,2052.8076923076924,-48.73076923076923,39.61538461538461,-28.0
1584.0,-98437.0,-6250.0,2403.769230769231,2053.3846153846152,-48.53846153846154,39.76923076923077,-28.0
1586.0,-98437.0,-6250.0,2493.923076923077,2053.9615384615386,-48.34615384615385,39.92307692307692,-28.0
1588.0,-98437.0,-6250.0,2584.0769230769233,2054.5384615384614,-48.15384615384615,40.07692307692308,-28.0
1590.0,-98437.0,-6250.0,2674.2307692307695,2055.1153846153848,-47.96153846153846,40.23076923076923,-28.0
1592.0,-98437.0,-6250.0,2764.3846153846152,2055.6923076923076,-47.76923076923077,40.38461538461539,-28.0
1594.0,-98437.0,-6250.0,2854.538461538462,2056.269230769231,-47.57692307692308,40.53846153846154,-28.0
1596.0,-98437.0,-6250.0,2944.6923076923076,2056.846153846154,-47.38461538461539,40.69230769230769,-28.0
1598.0,-98437.0,-6250.0,3034.846153846154,2057.423076923077,-47.19230769230769,40.84615384615385,-28.0
1600.0,-98437.0,-6250.0,3094.9423076923076,2057.8076923076924,-46.90384615384615,41.07692307692308,-28.01923076923077
1602.0,-98437.0,-6250.0,3004.769230769231,2057.230769230769,-46.61538461538461,41.30769230769231,-28.076923076923077
1604.0,-98437.0,-6250.0,2944.653846153846,2056.846153846154,-46.42307692307692,41.46153846153846,-28.115384615384617
1606.0,-98437.0,-6250.0,2884.5384615384614,2056.4615384615386,-46.23076923076923,41.61538461538461,-28.153846153846153
1608.0,-98437.0,-6250.0,2824.423076923077,2056.076923076923,-46.03846153846154,41.76923076923077,-28.192307692307693
1610.0,-98437.0,-6250.0,2764.3076923076924,2055.6923076923076,-45.84615384615385,41.92307692307692,-28.23076923076923
1612.0,-98437.0,-6250.0,2704.1923076923076,2055.3076923076924,-45.65384615384615,42.07692307692308,-28.26923076923077
1614.0,-98437.0,-6250.0,2644.076923076923,2054.923076923077,-45.46153846153846,42.23076923076923,-28.307692307692307
1616.0,-98437.0,-6250.0,2583.9615384615386,2054.5384615384614,-45.26923076923077,42.38461538461539,-28.346153846153847
1618.0,-98437.0,-6250.0,2523.846153846154,2054.153846153846,-45.07692307692308,42.53846153846154,-28.384615384615383
1620.0,-98437.0,-6250.0,2463.7307692307695,2053.769230769231,-44.88461538461539,42.69230769230769,-28.423076923076923
1622.0,-98437.0,-6250.0,2403.6153846153848,2053.3846153846152,-44.69230769230769,42.84615384615385,-28.46153846153846
1624.0,-98437.0,-6250.0,2343.5,2053.0,-44.5,43.0,-28.5
1626.0,-98437.0,-6250.0,2283.3846153846152,2052.6153846153848,-44.30769230769231,43.15384615384615,-28.53846153846154
1628.0,-98437.0,-6250.0,2223.269230769231,2052.230769230769,-44.11538461538461,43.30769230769231,-28.576923076923077
1630.0,-98437.0,-6250.0,2163.153846153846,2051.846153846154,-43.92307692307692,43.46153846153846,-28.615384615384617
1632.0,-98437.0,-6250.0,2103.0384615384614,2051.4615384615386,-43.73076923076923,43.61538461538461,-28.653846153846153
1634.0,-98437.0,-6250.0,2042.923076923077,2051.076923076923,-43.53846153846154,43.76923076923077,-28.692307692307693
1636.0,-98437.0,-6250.0,1982.8076923076924,2050.6923076923076,-43.34615384615385,43.92307692307692,-28.73076923076923
1638.0,-98437.0,-6250.0,1922.6923076923076,2050.3076923076924,-43.15384615384615,44.07692307692308,-28.76923076923077
1640.0,-98437.0,-6250.0,1862.576923076923,2049.923076923077,-42.96153846153846,44.23076923076923,-28.807692307692307
1642.0,-98437.0,-6250.0,1802.4615384615386,2049.5384615384614,-42.76923076923077,44.38461538461539,-28.846153846153847
1644.0,-98437.0,-6250.0,1742.3461538461538,2049.153846153846,-42.57692307692308,44.53846153846154,-28.884615384615383
1646.0,-98437.0,-6250.0,1682.2307692307693,2048.769230769231,-42.38461538461539,44.69230769230769,-28.923076923076923
1648.0,-98437.0,-6250.0,1622.1153846153848,2048.3846153846152,-42.19230769230769,44.84615384615385,-28.96153846153846
1650.0,-98437.0,-6280.038461538461,1546.9807692307693,2048.0576923076924,-41.94230769230769,45.03846153846154,-29.0
1652.0,-98437.0,-6370.153846153846,1501.923076923077,2048.230769230769,-41.76923076923077,45.15384615384615,-29.0
1654.0,-98437.0,-6430.2307692307695,1471.8846153846155,2048.346153846154,-41.65384615384615,45.23076923076923,-29.0
1656.0,-98437.0,-6490.307692307692,1441.8461538461538,2048.4615384615386,-41.53846153846154,45.30769230769231,-29.0
1658.0,-98437.0,-6550.384615384615,1411.8076923076924,2048.576923076923,-41.42307692307692,45.38461538461539,-29.0
1660.0,-98437.0,-6610.461538461538,1381.7692307692307,2048.6923076923076,-41.30769230769231,45.46153846153846,-29.0
1662.0,-98437.0,-6670.538461538462,1351.7307692307693,2048.8076923076924,-41.19230769230769,45.53846153846154,-29.0
1664.0,-98437.0,-6730.615384615385,1321.6923076923076,2048.923076923077,-41.07692307692308,45.61538461538461,-29.0
1666.0,-98437.0,-6790.692307692308,1291.6538461538462,2049.0384615384614,-40.96153846153846,45.69230769230769,-29.0
1668.0,-98437.0,-6850.7692307692305,1261.6153846153845,2049.153846153846,-40.84615384615385,45.76923076923077,-29.0
1670.0,-98437.0,-6910.846153846154,1231.576923076923,2049.269230769231,-40.73076923076923,45.84615384615385,-29.0
1672.0,-98437.0,-6970.923076923077,1201.5384615384614,2049.3846153846152,-40.61538461538461,45.92307692307692,-29.0
1674.0,-98437.0,-7031.0,1171.5,2049.5,-40.5,46.0,-29.0
1676.0,-98437.0,-7091.076923076923,1141.4615384615386,2049.6153846153848,-40.38461538461539,46.07692307692308,-29.0
1678.0,-98437.0,-7151.153846153846,1111.423076923077,2049.730769230769,-40.26923076923077,46.15384615384615,-29.0
1680.0,-98437.0,-7211.2307692307695,1081.3846153846152,2049.846153846154,-40.15384615384615,46.23076923076923,-29.0
1682.0,-98437.0,-7271.307692307692,1051.3461538461538,2049.9615384615386,-40.03846153846154,46.30769230769231,-29.0
1684.0,-98437.0,-7331.384615384615,1021.3076923076923,2050.076923076923,-39.92307692307692,46.38461538461539,-29.0
1686.0,-98437.0,-7391.461538461539,991.2692307692307,2050.1923076923076,-39.80769230769231,46.46153846153846,-29.0
1688.0,-98437.0,-7451.538461538462,961.2307692307692,2050.3076923076924,-39.69230769230769,46.53846153846154,-29.0
1690.0,-98437.0,-7511.615384615385,931.1923076923076,2050.423076923077,-39.57692307692308,46.61538461538461,-29.0
1692.0,-98437.0,-7571.692307692308,901.1538461538461,2050.5384615384614,-39.46153846153846,46.69230769230769,-29.0
1694.0,-98437.0,-7631.7692307692305,871.1153846153845,2050.653846153846,-39.34615384615385,46.76923076923077,-29.0
1696.0,-98437.0,-7691.846153846154,841.0769230769231,2050.769230769231,-39.23076923076923,46.84615384615385,-29.0
1698.0,-98437.0,-7751.923076923077,811.0384615384615,2050.8846153846152,-39.11538461538461,46.92307692307692,-29.0
1700.0,-98437.0,-7796.9807692307695,781.0,2051.0576923076924,-38.92307692307692,47.09615384615385,-28.98076923076923
1702.0,-98437.0,-7751.923076923077,781.0,2051.230769230769,-38.69230769230769,47.38461538461539,-28.923076923076923
1704.0,-98437.0,-7721.884615384615,781.0,2051.346153846154,-38.53846153846154,47.57692307692308,-28.884615384615383
1706.0,-98437.0,-7691.846153846154,781.0,2051.4615384615386,-38.38461538461539,47.76923076923077,-28.846153846153847
1708.0,-98437.0,-7661.807692307692,781.0,2051.576923076923,-38.23076923076923,47.96153846153846,-28.807692307692307
1710.0,-98437.0,-7631.7692307692305,781.0,2051.6923076923076,-38.07692307692308,48.15384615384615,-28.76923076923077
1712.0,-98437.0,-7601.7307692307695,781.0,2051.8076923076924,-37.92307692307692,48.34615384615385,-28.73076923076923
1714.0,-98437.0,-7571.692307692308,781.0,2051.923076923077,-37.76923076923077,48.53846153846154,-28.692307692307693
1716.0,-98437.0,-7541.653846153846,781.0,2052.0384615384614,-37.61538461538461,48.73076923076923,-28.653846153846153
1718.0,-98437.0,-7511.615384615385,781.0,2052.153846153846,-37.46153846153846,48.92307692307692,-28.615384615384617
1720.0,-98437.0,-7481.576923076923,781.0,2052.269230769231,-37.30769230769231,49.11538461538461,-28.576923076923077
1722.0,-98437.0,-7451.538461538462,781.0,2052.3846153846152,-37.15384615384615,49.30769230769231,-28.53846153846154
1724.0,-98437.0,-7421.5,781.0,2052.5,-37.0,49.5,-28.5
1726.0,-98437.0,-7391.461538461538,781.0,2052.6153846153848,-36.84615384615385,49.69230769230769,-28.46153846153846
1728.0,-98437.0,-7361.423076923077,781.0,2052.730769230769,-36.69230769230769,49.88461538461539,-28.423076923076923
1730.0,-98437.0,-7331.384615384615,781.0,2052.846153846154,-36.53846153846154,50.07692307692308,-28.384615384615383
1732.0,-98437.0,-7301.346153846154,781.0,2052.9615384615386,-36.38461538461539,50.26923076923077,-28.346153846153847
1734.0,-98437.0,-7271.307692307692,781.0,2053.076923076923,-36.23076923076923,50.46153846153846,-28.307692307692307
1736.0,-98437.0,-7241.2692307692305,781.0,2053.1923076923076,-36.07692307692308,50.65384615384615,-28.26923076923077
1738.0,-98437.0,-7211.2307692307695,781.0,2053.3076923076924,-35.92307692307692,50.84615384615385,-28.23076923076923
1740.0,-98437.0,-7181.192307692308,781.0,2053.423076923077,-35.76923076923077,51.03846153846154,-28.192307692307693
1742.0,-98437.0,-7151.153846153846,781.0,2053.5384615384614,-35.61538461538461,51.23076923076923,-28.153846153846153
1744.0,-98437.0,-7121.115384615385,781.0,2053.653846153846,-35.46153846153846,51.42307692307692,-28.115384615384617
1746.0,-98437.0,-7091.076923076923,781.0,2053.769230769231,-35.30769230769231,51.61538461538461,-28.076923076923077
1748.0,-98437.0,-7061.038461538462,781.0,2053.8846153846152,-35.15384615384615,51.80769230769231,-28.03846153846154
1750.0,-98452.01923076923,-7015.9807692307695,781.0,2053.8846153846152,-34.94230769230769,52.07692307692308,-28.0
1752.0,-98497.07692307692,-6970.923076923077,781.0,2053.5384615384614,-34.76923076923077,52.30769230769231,-28.0
1754.0,-98527.11538461539,-6940.884615384615,781.0,2053.3076923076924,-34.65384615384615,52.46153846153846,-28.0
1756.0,-98557.15384615384,-6910.846153846154,781.0,2053.076923076923,-34.53846153846154,52.61538461538461,-28.0
1758.0,-98587.19230769231,-6880.807692307692,781.0,2052.846153846154,-34.42307692307692,52.76923076923077,-28.0
1760.0,-98617.23076923077,-6850.7692307692305,781.0,2052.6153846153848,-34.30769230769231,52.92307692307692,-28.0
1762.0,-98647.26923076923,-6820.7307692307695,781.0,2052.3846153846152,-34.19230769230769,53.07692307692308,-28.0
1764.0,-98677.30769230769,-6790.692307692308,781.0,2052.153846153846,-34.07692307692308,53.23076923076923,-28.0
1766.0,-98707.34615384616,-6760.653846153846,781.0,2051.923076923077,-33.96153846153846,53.38461538461539,-28.0
1768.0,-98737.38461538461,-6730.615384615385,781.0,2051.6923076923076,-33.84615384615385,53.53846153846154,-28.0
1770.0,-98767.42307692308,-6700.576923076923,781.0,2051.4615384615386,-33.73076923076923,53.69230769230769,-28.0
1772.0,-98797.46153846153,-6670.538461538462,781.0,2051.230769230769,-33.61538461538461,53.84615384615385,-28.0
1774.0,-98827.5,-6640.5,781.0,2051.0,-33.5,54.0,-28.0
1776.0,-98857.53846153847,-6610.461538461538,781.0,2050.769230769231,-33.38461538461539,54.15384615384615,-28.0
1778.0,-98887.57692307692,-6580.423076923077,781.0,2050.5384615384614,-33.26923076923077,54.30769230769231,-28.0
1780.0,-98917.61538461539,-6550.384615384615,781.0,2050.3076923076924,-33.15384615384615,54.46153846153846,-28.0
1782.0,-98947.65384615384,-6520.346153846154,781.0,2050.076923076923,-33.03846153846154,54.61538461538461,-28.0
1784.0,-98977.69230769231,-6490.307692307692,781.0,2049.846153846154,-32.92307692307692,54.76923076923077,-28.0
1786.0,-99007.73076923077,-6460.2692307692305,781.0,2049.6153846153848,-32.80769230769231,54.92307692307692,-28.0
1788.0,-99037.76923076923,-6430.2307692307695,781.0,2049.3846153846152,-32.69230769230769,55.07692307692308,-28.0
1790.0,-99067.80769230769,-6400.192307692308,781.0,2049.153846153846,-32.57692307692308,55.23076923076923,-28.0
1792.0,-99097.84615384616,-6370.153846153846,781.0,2048.923076923077,-32.46153846153846,55.38461538461539,-28.0
1794.0,-99127.88461538461,-6340.115384615385,781.0,2048.6923076923076,-32.34615384615385,55.53846153846154,-28.0
1796.0,-99157.92307692308,-6310.076923076923,781.0,2048.4615384615386,-32.23076923076923,55.69230769230769,-28.0
1798.0,-99187.96153846153,-6280.038461538462,781.0,2048.230769230769,-32.11538461538461,55.84615384615385,-28.0
1800.0,-99233.03846153847,-6265.0192307692305,765.9807692307693,2048.0576923076924,-31.96153846153846,56.05769230769231,-27.98076923076923
1802.0,-99278.15384615384,-6310.076923076923,720.9230769230769,2048.230769230769,-31.846153846153847,56.23076923076923,-27.923076923076923
1804.0,-99308.23076923077,-6340.115384615385,690.8846153846154,2048.346153846154,-31.76923076923077,56.34615384615385,-27.884615384615383
1806.0,-99338.30769230769,-6370.153846153846,660.8461538461538,2048.4615384615386,-31.692307692307693,56.46153846153846,-27.846153846153847
1808.0,-99368.38461538461,-6400.192307692308,630.8076923076923,2048.576923076923,-31.615384615384617,56.57692307692308,-27.807692307692307
1810.0,-99398.46153846153,-6430.2307692307695,600.7692307692307,2048.6923076923076,-31.53846153846154,56.69230769230769,-27.76923076923077
1812.0,-99428.53846153847,-6460.2692307692305,570.7307692307693,2048.8076923076924,-31.46153846153846,56.80769230769231,-27.73076923076923
1814.0,-99458.61538461539,-6490.307692307692,540.6923076923076,2048.923076923077,-31.384615384615383,56.92307692307692,-27.692307692307693
1816.0,-99488.69230769231,-6520.346153846154,510.65384615384613,2049.0384615384614,-31.307692307692307,57.03846153846154,-27.653846153846153
1818.0,-99518.76923076923,-6550.384615384615,480.6153846153846,2049.153846153846,-31.23076923076923,57.15384615384615,-27.615384615384617
1820.0,-99548.84615384616,-6580.423076923077,450.57692307692304,2049.269230769231,-31.153846153846153,57.26923076923077,-27.576923076923077
1822.0,-99578.92307692308,-6610.461538461538,420.53846153846155,2049.3846153846152,-31.076923076923077,57.38461538461539,-27.53846153846154
1824.0,-99609.0,-6640.5,390.5,2049.5,-31.0,57.5,-27.5
1826.0,-99639.07692307692,-6670.538461538462,360.46153846153845,2049.6153846153848,-30.923076923076923,57.61538461538461,-27.46153846153846
1828.0,-99669.15384615384,-6700.576923076923,330.4230769230769,2049.730769230769,-30.846153846153847,57.73076923076923,-27.423076923076923
1830.0,-99699.23076923077,-6730.615384615385,300.38461538461536,2049.846153846154,-30.76923076923077,57.84615384615385,-27.384615384615383
1832.0,-99729.30769230769,-6760.653846153846,270.3461538461538,2049.9615384615386,-30.692307692307693,57.96153846153846,-27.346153846153847
1834.0,-99759.38461538461,-6790.692307692308,240.30769230769226,2050.076923076923,-30.615384615384617,58.07692307692308,-27.307692307692307
1836.0,-99789.46153846153,-6820.7307692307695,210.26923076923072,2050.1923076923076,-30.53846153846154,58.19230769230769,-27.26923076923077
1838.0,-99819.53846153847,-6850.7692307692305,180.23076923076917,2050.3076923076924,-30.46153846153846,58.30769230769231,-27.23076923076923
1840.0,-99849.61538461539,-6880.807692307692,150.19230769230762,2050.423076923077,-30.384615384615383,58.42307692307692,-27.192307692307693
1842.0,-99879.69230769231,-6910.846153846154,120.15384615384608,2050.5384615384614,-30.307692307692307,58.53846153846154,-27.153846153846153
1844.0,-99909.76923076923,-6940.884615384615,90.11538461538453,2050.653846153846,-30.23076923076923,58.65384615384615,-27.115384615384617
1846.0,-99939.84615384616,-6970.923076923077,60.076923076923094,2050.769230769231,-30.153846153846153,58.76923076923077,-27.076923076923077
1848.0,-99969.92307692308,-7000.961538461538,30.038461538461547,2050.8846153846152,-30.076923076923077,58.88461538461539,-27.03846153846154
1850.0,-100015.01923076923,-7015.9807692307695,-30.03846153846154,2051.0576923076924,-29.96153846153846,59.03846153846154,-26.98076923076923
1852.0,-100060.07692307692,-6970.923076923077,-120.15384615384616,2051.230769230769,-29.846153846153847,59.15384615384615,-26.923076923076923
1854.0,-100090.11538461539,-6940.884615384615,-180.23076923076923,2051.346153846154,-29.76923076923077,59.23076923076923,-26.884615384615383
1856.0,-100120.15384615384,-6910.846153846154,-240.30769230769232,2051.4615384615386,-29.692307692307693,59.30769230769231,-26.846153846153847
1858.0,-100150.19230769231,-6880.807692307692,-300.3846153846154,2051.576923076923,-29.615384615384617,59.38461538461539,-26.807692307692307
1860.0,-100180.23076923077,-6850.7692307692305,-360.46153846153845,2051.6923076923076,-29.53846153846154,59.46153846153846,-26.76923076923077
1862.0,-100210.26923076923,-6820.7307692307695,-420.53846153846155,2051.8076923076924,-29.46153846153846,59.53846153846154,-26.73076923076923
1864.0,-100240.30769230769,-6790.692307692308,-480.61538461538464,2051.923076923077,-29.384615384615383,59.61538461538461,-26.692307692307693
1866.0,-100270.34615384616,-6760.653846153846,-540.6923076923077,2052.0384615384614,-29.307692307692307,59.69230769230769,-26.653846153846153
1868.0,-100300.38461538461,-6730.615384615385,-600.7692307692308,2052.153846153846,-29.23076923076923,59.76923076923077,-26.615384615384617
1870.0,-100330.42307692308,-6700.576923076923,-660.8461538461539,2052.269230769231,-29.153846153846153,59.84615384615385,-26.576923076923077
1872.0,-100360.46153846153,-6670.538461538462,-720.9230769230769,2052.3846153846152,-29.076923076923077,59.92307692307692,-26.53846153846154
1874.0,-100390.5,-6640.5,-781.0,2052.5,-29.0,60.0,-26.5
1876.0,-100420.53846153847,-6610.461538461538,-841.0769230769231,2052.6153846153848,-28.923076923076923,60.07692307692308,-26.46153846153846
1878.0,-100450.57692307692,-6580.423076923077,-901.1538461538462,2052.730769230769,-28.846153846153847,60.15384615384615,-26.423076923076923
1880.0,-100480.61538461539,-6550.384615384615,-961.2307692307693,2052.846153846154,-28.76923076923077,60.23076923076923,-26.384615384615383
1882.0,-100510.65384615384,-6520.346153846154,-1021.3076923076924,2052.9615384615386,-28.692307692307693,60.30769230769231,-26.346153846153847
1884.0,-100540.69230769231,-6490.307692307692,-1081.3846153846155,2053.076923076923,-28.615384615384617,60.38461538461539,-26.307692307692307
1886.0,-100570.73076923077,-6460.2692307692305,-1141.4615384615386,2053.1923076923076,-28.53846153846154,60.46153846153846,-26.26923076923077
1888.0,-100600.76923076923,-6430.2307692307695,-1201.5384615384617,2053.3076923076924,-28.46153846153846,60.53846153846154,-26.23076923076923
1890.0,-100630.80769230769,-6400.192307692308,-1261.6153846153848,2053.423076923077,-28.384615384615383,60.61538461538461,-26.192307692307693
1892.0,-100660.84615384616,-6370.153846153846,-1321.6923076923078,2053.5384615384614,-28.307692307692307,60.69230769230769,-26.153846153846153
1894.0,-100690.88461538461,-6340.115384615385,-1381.769230769231,2053.653846153846,-28.23076923076923,60.76923076923077,-26.115384615384617
1896.0,-100720.92307692308,-6310.076923076923,-1441.8461538461538,2053.769230769231,-28.153846153846153,60.84615384615385,-26.076923076923077
1898.0,-100750.96153846153,-6280.038461538462,-1501.923076923077,2053.8846153846152,-28.076923076923077,60.92307692307692,-26.03846153846154
1900.0,-100796.01923076923,-6204.923076923077,-1577.0192307692307,2053.9615384615386,-28.01923076923077,61.0,-26.0
1902.0,-100841.07692307692,-6069.692307692308,-1622.076923076923,2053.846153846154,-28.076923076923077,61.0,-26.0
1904.0,-100871.11538461539,-5979.538461538462,-1652.1153846153845,2053.769230769231,-28.115384615384617,61.0,-26.0
1906.0,-100901.15384615384,-5889.384615384615,-1682.1538461538462,2053.6923076923076,-28.153846153846153,61.0,-26.0
1908.0,-100931.19230769231,-5799.2307692307695,-1712.1923076923076,2053.6153846153848,-28.192307692307693,61.0,-26.0
1910.0,-100961.23076923077,-5709.076923076923,-1742.2307692307693,2053.5384615384614,-28.23076923076923,61.0,-26.0
1912.0,-100991.26923076923,-5618.923076923077,-1772.2692307692307,2053.4615384615386,-28.26923076923077,61.0,-26.0
1914.0,-101021.30769230769,-5528.7692307692305,-1802.3076923076924,2053.3846153846152,-28.307692307692307,61.0,-26.0
1916.0,-101051.34615384616,-5438.615384615385,-1832.3461538461538,2053.3076923076924,-28.346153846153847,61.0,-26.0
1918.0,-101081.38461538461,-5348.461538461538,-1862.3846153846155,2053.230769230769,-28.384615384615383,61.0,-26.0
1920.0,-101111.42307692308,-5258.307692307692,-1892.423076923077,2053.153846153846,-28.423076923076923,61.0,-26.0
1922.0,-101141.46153846153,-5168.153846153846,-1922.4615384615386,2053.076923076923,-28.46153846153846,61.0,-26.0
1924.0,-101171.5,-5078.0,-1952.5,2053.0,-28.5,61.0,-26.0
1926.0,-101201.53846153847,-4987.846153846154,-1982.5384615384614,2052.923076923077,-28.53846153846154,61.0,-26.0
1928.0,-101231.57692307692,-4897.692307692308,-2012.576923076923,2052.846153846154,-28.576923076923077,61.0,-26.0
1930.0,-101261.61538461539,-4807.538461538461,-2042.6153846153848,2052.769230769231,-28.615384615384617,61.0,-26.0
1932.0,-101291.65384615384,-4717.384615384615,-2072.653846153846,2052.6923076923076,-28.653846153846153,61.0,-26.0
1934.0,-101321.69230769231,-4627.2307692307695,-2102.6923076923076,2052.6153846153848,-28.692307692307693,61.0,-26.0
1936.0,-101351.73076923077,-4537.076923076923,-2132.7307692307695,2052.5384615384614,-28.73076923076923,61.0,-26.0
1938.0,-101381.76923076923,-4446.923076923076,-2162.769230769231,2052.4615384615386,-28.76923076923077,61.0,-26.0
1940.0,-101411.80769230769,-4356.7692307692305,-2192.8076923076924,2052.3846153846152,-28.807692307692307,61.0,-26.0
1942.0,-101441.84615384616,-4266.615384615385,-2222.846153846154,2052.3076923076924,-28.846153846153847,61.0,-26.0
1944.0,-101471.88461538461,-4176.461538461538,-2252.8846153846152,2052.230769230769,-28.884615384615383,61.0,-26.0
1946.0,-101501.92307692308,-4086.3076923076924,-2282.923076923077,2052.153846153846,-28.923076923076923,61.0,-26.0
1948.0,-101531.96153846153,-3996.153846153846,-2312.9615384615386,2052.076923076923,-28.96153846153846,61.0,-26.0
1950.0,-101562.0,-3906.0,-2358.0384615384614,2051.8653846153848,-29.057692307692307,61.0,-26.0
1952.0,-101562.0,-3906.0,-2403.153846153846,2051.4615384615386,-29.23076923076923,61.0,-26.0
1954.0,-101562.0,-3906.0,-2433.230769230769,2051.1923076923076,-29.346153846153847,61.0,-26.0
1956.0,-101562.0,-3906.0,-2463.3076923076924,2050.923076923077,-29.46153846153846,61.0,-26.0
1958.0,-101562.0,-3906.0,-2493.3846153846152,2050.653846153846,-29.576923076923077,61.0,-26.0
1960.0,-101562.0,-3906.0,-2523.4615384615386,2050.3846153846152,-29.692307692307693,61.0,-26.0
1962.0,-101562.0,-3906.0,-2553.5384615384614,2050.1153846153848,-29.807692307692307,61.0,-26.0
1964.0,-101562.0,-3906.0,-2583.6153846153848,2049.846153846154,-29.923076923076923,61.0,-26.0
1966.0,-101562.0,-3906.0,-2613.6923076923076,2049.576923076923,-30.03846153846154,61.0,-26.0
1968.0,-101562.0,-3906.0,-2643.769230769231,2049.3076923076924,-30.153846153846153,61.0,-26.0
1970.0,-101562.0,-3906.0,-2673.846153846154,2049.0384615384614,-30.26923076923077,61.0,-26.0
1972.0,-101562.0,-3906.0,-2703.923076923077,2048.769230769231,-30.384615384615383,61.0,-26.0
1974.0,-101562.0,-3906.0,-2734.0,2048.5,-30.5,61.0,-26.0
1976.0,-101562.0,-3906.0,-2764.076923076923,2048.230769230769,-30.615384615384617,61.0,-26.0
1978.0,-101562.0,-3906.0,-2794.153846153846,2047.9615384615386,-30.73076923076923,61.0,-26.0
1980.0,-101562.0,-3906.0,-2824.230769230769,2047.6923076923076,-30.846153846153847,61.0,-26.0
1982.0,-101562.0,-3906.0,-2854.3076923076924,2047.423076923077,-30.96153846153846,61.0,-26.0
1984.0,-101562.0,-3906.0,-2884.3846153846152,2047.1538461538462,-31.076923076923077,61.0,-26.0
1986.0,-101562.0,-3906.0,-2914.4615384615386,2046.8846153846155,-31.192307692307693,61.0,-26.0
1988.0,-101562.0,-3906.0,-2944.5384615384614,2046.6153846153845,-31.307692307692307,61.0,-26.0
1990.0,-101562.0,-3906.0,-2974.6153846153848,2046.3461538461538,-31.423076923076923,61.0,-26.0
1992.0,-101562.0,-3906.0,-3004.6923076923076,2046.076923076923,-31.53846153846154,61.0,-26.0
1994.0,-101562.0,-3906.0,-3034.7692307692305,2045.8076923076924,-31.653846153846153,61.0,-26.0
1996.0,-101562.0,-3906.0,-3064.846153846154,2045.5384615384614,-31.76923076923077,61.0,-26.0
1998.0,-101562.0,-3906.0,-3094.923076923077,2045.2692307692307,-31.884615384615383,61.0,-26.0
2000.0,-101577.01923076923,-3890.9807692307695,-3140.0192307692305,2045.076923076923,-32.09615384615385,60.92307692307692,-25.98076923076923
2002.0,-101622.07692307692,-3845.923076923077,-3185.076923076923,2045.3076923076924,-32.38461538461539,60.69230769230769,-25.923076923076923
2004.0,-101652.11538461539,-3815.8846153846152,-3215.1153846153848,2045.4615384615386,-32.57692307692308,60.53846153846154,-25.884615384615383
2006.0,-101682.15384615384,-3785.846153846154,-3245.153846153846,2045.6153846153845,-32.76923076923077,60.38461538461539,-25.846153846153847
2008.0,-101712.19230769231,-3755.8076923076924,-3275.1923076923076,2045.7692307692307,-32.96153846153846,60.23076923076923,-25.807692307692307
2010.0,-101742.23076923077,-3725.769230769231,-3305.230769230769,2045.923076923077,-33.15384615384615,60.07692307692308,-25.76923076923077
2012.0,-101772.26923076923,-3695.730769230769,-3335.269230769231,2046.076923076923,-33.34615384615385,59.92307692307692,-25.73076923076923
2014.0,-101802.30769230769,-3665.6923076923076,-3365.3076923076924,2046.2307692307693,-33.53846153846154,59.76923076923077,-25.692307692307693
2016.0,-101832.34615384616,-3635.653846153846,-3395.346153846154,2046.3846153846155,-33.73076923076923,59.61538461538461,-25.653846153846153
2018.0,-101862.38461538461,-3605.6153846153848,-3425.3846153846152,2046.5384615384614,-33.92307692307692,59.46153846153846,-25.615384615384617
2020.0,-101892.42307692308,-3575.576923076923,-3455.423076923077,2046.6923076923076,-34.11538461538461,59.30769230769231,-25.576923076923077
2022.0,-101922.46153846153,-3545.5384615384614,-3485.4615384615386,2046.8461538461538,-34.30769230769231,59.15384615384615,-25.53846153846154
2024.0,-101952.5,-3515.5,-3515.5,2047.0,-34.5,59.0,-25.5
2026.0,-101982.53846153847,-3485.4615384615386,-3545.5384615384614,2047.1538461538462,-34.69230769230769,58.84615384615385,-25.46153846153846
2028.0,-102012.57692307692,-3455.423076923077,-3575.576923076923,2047.3076923076924,-34.88461538461539,58.69230769230769,-25.423076923076923
2030.0,-102042.61538461539,-3425.3846153846152,-3605.6153846153848,2047.4615384615386,-35.07692307692308,58.53846153846154,-25.384615384615383
2032.0,-102072.65384615384,-3395.346153846154,-3635.653846153846,2047.6153846153845,-35.26923076923077,58.38461538461539,-25.346153846153847
2034.0,-102102.69230769231,-3365.3076923076924,-3665.6923076923076,2047.7692307692307,-35.46153846153846,58.23076923076923,-25.307692307692307
2036.0,-102132.73076923077,-3335.2692307692305,-3695.7307692307695,2047.923076923077,-35.65384615384615,58.07692307692308,-25.26923076923077
2038.0,-102162.76923076923,-3305.230769230769,-3725.769230769231,2048.076923076923,-35.84615384615385,57.92307692307692,-25.23076923076923
2040.0,-102192.80769230769,-3275.1923076923076,-3755.8076923076924,2048.230769230769,-36.03846153846154,57.76923076923077,-25.192307692307693
