timestamp,accX,accY,accZ,pressure,gyroX,gyroY,gyroZ
0.0,-100000.0,-7796.9807692307695,-781.0,2061.826923076923,-49.019230769230774,25.01923076923077,-36.019230769230774
2.0,-100000.0,-7751.923076923077,-781.0,2061.3076923076924,-49.07692307692308,25.076923076923077,-36.07692307692308
4.0,-100000.0,-7721.884615384615,-781.0,2060.9615384615386,-49.11538461538461,25.115384615384617,-36.11538461538461
6.0,-100000.0,-7691.846153846154,-781.0,2060.6153846153848,-49.15384615384615,25.153846153846153,-36.15384615384615
8.0,-100000.0,-7661.807692307692,-781.0,2060.269230769231,-49.19230769230769,25.192307692307693,-36.19230769230769
10.0,-100000.0,-7631.7692307692305,-781.0,2059.923076923077,-49.23076923076923,25.23076923076923,-36.23076923076923
12.0,-100000.0,-7601.7307692307695,-781.0,2059.576923076923,-49.26923076923077,25.26923076923077,-36.26923076923077
14.0,-100000.0,-7571.692307692308,-781.0,2059.230769230769,-49.30769230769231,25.307692307692307,-36.30769230769231
16.0,-100000.0,-7541.653846153846,-781.0,2058.8846153846152,-49.34615384615385,25.346153846153847,-36.34615384615385
18.0,-100000.0,-7511.615384615385,-781.0,2058.5384615384614,-49.38461538461539,25.384615384615383,-36.38461538461539
20.0,-100000.0,-7481.576923076923,-781.0,2058.1923076923076,-49.42307692307692,25.423076923076923,-36.42307692307692
22.0,-100000.0,-7451.538461538462,-781.0,2057.846153846154,-49.46153846153846,25.46153846153846,-36.46153846153846
24.0,-100000.0,-7421.5,-781.0,2057.5,-49.5,25.5,-36.5
26.0,-100000.0,-7391.461538461538,-781.0,2057.153846153846,-49.53846153846154,25.53846153846154,-36.53846153846154
28.0,-100000.0,-7361.423076923077,-781.0,2056.8076923076924,-49.57692307692308,25.576923076923077,-36.57692307692308
30.0,-100000.0,-7331.384615384615,-781.0,2056.4615384615386,-49.61538461538461,25.615384615384617,-36.61538461538461
32.0,-100000.0,-7301.346153846154,-781.0,2056.1153846153848,-49.65384615384615,25.653846153846153,-36.65384615384615
34.0,-100000.0,-7271.307692307692,-781.0,2055.769230769231,-49.69230769230769,25.692307692307693,-36.69230769230769
36.0,-100000.0,-7241.2692307692305,-781.0,2055.423076923077,-49.73076923076923,25.73076923076923,-36.73076923076923
38.0,-100000.0,-7211.2307692307695,-781.0,2055.076923076923,-49.76923076923077,25.76923076923077,-36.76923076923077
40.0,-100000.0,-7181.192307692308,-781.0,2054.730769230769,-49.80769230769231,25.807692307692307,-36.80769230769231
42.0,-100000.0,-7151.153846153846,-781.0,2054.3846153846152,-49.84615384615385,25.846153846153847,-36.84615384615385
44.0,-100000.0,-7121.115384615385,-781.0,2054.0384615384614,-49.88461538461539,25.884615384615383,-36.88461538461539
46.0,-100000.0,-7091.076923076923,-781.0,2053.6923076923076,-49.92307692307692,25.923076923076923,-36.92307692307692
48.0,-100000.0,-7061.038461538462,-781.0,2053.346153846154,-49.96153846153846,25.96153846153846,-36.96153846153846
50.0,-99984.96153846153,-7046.0192307692305,-781.0,2053.2692307692305,-50.019230769230774,26.01923076923077,-37.0
52.0,-99939.84615384616,-7091.076923076923,-781.0,2054.076923076923,-50.07692307692308,26.076923076923077,-37.0
54.0,-99909.76923076923,-7121.115384615385,-781.0,2054.6153846153848,-50.11538461538461,26.115384615384617,-37.0
56.0,-99879.69230769231,-7151.153846153846,-781.0,2055.153846153846,-50.15384615384615,26.153846153846153,-37.0
58.0,-99849.61538461539,-7181.192307692308,-781.0,2055.6923076923076,-50.19230769230769,26.192307692307693,-37.0
60.0,-99819.53846153847,-7211.2307692307695,-781.0,2056.230769230769,-50.23076923076923,26.23076923076923,-37.0
62.0,-99789.46153846153,-7241.2692307692305,-781.0,2056.769230769231,-50.26923076923077,26.26923076923077,-37.0
64.0,-99759.38461538461,-7271.307692307692,-781.0,2057.3076923076924,-50.30769230769231,26.307692307692307,-37.0
66.0,-99729.30769230769,-7301.346153846154,-781.0,2057.846153846154,-50.34615384615385,26.346153846153847,-37.0
68.0,-99699.23076923077,-7331.384615384615,-781.0,2058.3846153846152,-50.38461538461539,26.384615384615383,-37.0
70.0,-99669.15384615384,-7361.423076923077,-781.0,2058.923076923077,-50.42307692307692,26.423076923076923,-37.0
72.0,-99639.07692307692,-7391.461538461538,-781.0,2059.4615384615386,-50.46153846153846,26.46153846153846,-37.0
74.0,-99609.0,-7421.5,-781.0,2060.0,-50.5,26.5,-37.0
76.0,-99578.92307692308,-7451.538461538462,-781.0,2060.5384615384614,-50.53846153846154,26.53846153846154,-37.0
78.0,-99548.84615384616,-7481.576923076923,-781.0,2061.076923076923,-50.57692307692308,26.576923076923077,-37.0
80.0,-99518.76923076923,-7511.615384615385,-781.0,2061.6153846153848,-50.61538461538461,26.615384615384617,-37.0
82.0,-99488.69230769231,-7541.653846153846,-781.0,2062.153846153846,-50.65384615384615,26.653846153846153,-37.0
84.0,-99458.61538461539,-7571.692307692308,-781.0,2062.6923076923076,-50.69230769230769,26.692307692307693,-37.0
86.0,-99428.53846153847,-7601.7307692307695,-781.0,2063.230769230769,-50.73076923076923,26.73076923076923,-37.0
88.0,-99398.46153846153,-7631.7692307692305,-781.0,2063.769230769231,-50.76923076923077,26.76923076923077,-37.0
90.0,-99368.38461538461,-7661.807692307692,-781.0,2064.3076923076924,-50.80769230769231,26.807692307692307,-37.0
92.0,-99338.30769230769,-7691.846153846154,-781.0,2064.846153846154,-50.84615384615385,26.846153846153847,-37.0
94.0,-99308.23076923077,-7721.884615384615,-781.0,2065.3846153846152,-50.88461538461539,26.884615384615383,-37.0
96.0,-99278.15384615384,-7751.923076923077,-781.0,2065.923076923077,-50.92307692307692,26.923076923076923,-37.0
98.0,-99248.07692307692,-7781.961538461538,-781.0,2066.4615384615386,-50.96153846153846,26.96153846153846,-37.0
100.0,-99218.0,-7812.0,-796.0192307692307,2066.903846153846,-50.980769230769226,27.03846153846154,-37.0
102.0,-99218.0,-7812.0,-841.0769230769231,2066.6153846153848,-50.92307692307692,27.153846153846153,-37.0
104.0,-99218.0,-7812.0,-871.1153846153846,2066.423076923077,-50.88461538461539,27.23076923076923,-37.0
106.0,-99218.0,-7812.0,-901.1538461538462,2066.230769230769,-50.84615384615385,27.307692307692307,-37.0
108.0,-99218.0,-7812.0,-931.1923076923077,2066.0384615384614,-50.80769230769231,27.384615384615383,-37.0
110.0,-99218.0,-7812.0,-961.2307692307693,2065.846153846154,-50.76923076923077,27.46153846153846,-37.0
112.0,-99218.0,-7812.0,-991.2692307692307,2065.653846153846,-50.73076923076923,27.53846153846154,-37.0
114.0,-99218.0,-7812.0,-1021.3076923076924,2065.4615384615386,-50.69230769230769,27.615384615384617,-37.0
116.0,-99218.0,-7812.0,-1051.3461538461538,2065.269230769231,-50.65384615384615,27.692307692307693,-37.0
118.0,-99218.0,-7812.0,-1081.3846153846155,2065.076923076923,-50.61538461538461,27.76923076923077,-37.0
120.0,-99218.0,-7812.0,-1111.423076923077,2064.8846153846152,-50.57692307692308,27.846153846153847,-37.0
122.0,-99218.0,-7812.0,-1141.4615384615386,2064.6923076923076,-50.53846153846154,27.923076923076923,-37.0
124.0,-99218.0,-7812.0,-1171.5,2064.5,-50.5,28.0,-37.0
126.0,-99218.0,-7812.0,-1201.5384615384614,2064.3076923076924,-50.46153846153846,28.076923076923077,-37.0
128.0,-99218.0,-7812.0,-1231.576923076923,2064.1153846153848,-50.42307692307692,28.153846153846153,-37.0
130.0,-99218.0,-7812.0,-1261.6153846153848,2063.923076923077,-50.38461538461539,28.23076923076923,-37.0
132.0,-99218.0,-7812.0,-1291.6538461538462,2063.730769230769,-50.34615384615385,28.307692307692307,-37.0
134.0,-99218.0,-7812.0,-1321.6923076923076,2063.5384615384614,-50.30769230769231,28.384615384615383,-37.0
136.0,-99218.0,-7812.0,-1351.7307692307693,2063.346153846154,-50.26923076923077,28.46153846153846,-37.0
138.0,-99218.0,-7812.0,-1381.769230769231,2063.153846153846,-50.23076923076923,28.53846153846154,-37.0
140.0,-99218.0,-7812.0,-1411.8076923076924,2062.9615384615386,-50.19230769230769,28.615384615384617,-37.0
142.0,-99218.0,-7812.0,-1441.8461538461538,2062.769230769231,-50.15384615384615,28.692307692307693,-37.0
144.0,-99218.0,-7812.0,-1471.8846153846155,2062.576923076923,-50.11538461538461,28.76923076923077,-37.0
146.0,-99218.0,-7812.0,-1501.923076923077,2062.3846153846152,-50.07692307692308,28.846153846153847,-37.0
148.0,-99218.0,-7812.0,-1531.9615384615386,2062.1923076923076,-50.03846153846154,28.923076923076923,-37.0
150.0,-99218.0,-7796.9807692307695,-1546.9807692307693,2061.75,-50.019230769230774,29.03846153846154,-37.019230769230774
152.0,-99218.0,-7751.923076923077,-1501.923076923077,2061.0,-50.07692307692308,29.153846153846153,-37.07692307692308
154.0,-99218.0,-7721.884615384615,-1471.8846153846155,2060.5,-50.11538461538461,29.23076923076923,-37.11538461538461
156.0,-99218.0,-7691.846153846154,-1441.8461538461538,2060.0,-50.15384615384615,29.307692307692307,-37.15384615384615
158.0,-99218.0,-7661.807692307692,-1411.8076923076924,2059.5,-50.19230769230769,29.384615384615383,-37.19230769230769
160.0,-99218.0,-7631.7692307692305,-1381.7692307692307,2059.0,-50.23076923076923,29.46153846153846,-37.23076923076923
162.0,-99218.0,-7601.7307692307695,-1351.7307692307693,2058.5,-50.26923076923077,29.53846153846154,-37.26923076923077
164.0,-99218.0,-7571.692307692308,-1321.6923076923076,2058.0,-50.30769230769231,29.615384615384617,-37.30769230769231
166.0,-99218.0,-7541.653846153846,-1291.6538461538462,2057.5,-50.34615384615385,29.692307692307693,-37.34615384615385
168.0,-99218.0,-7511.615384615385,-1261.6153846153845,2057.0,-50.38461538461539,29.76923076923077,-37.38461538461539
170.0,-99218.0,-7481.576923076923,-1231.576923076923,2056.5,-50.42307692307692,29.846153846153847,-37.42307692307692
172.0,-99218.0,-7451.538461538462,-1201.5384615384614,2056.0,-50.46153846153846,29.923076923076923,-37.46153846153846
174.0,-99218.0,-7421.5,-1171.5,2055.5,-50.5,30.0,-37.5
176.0,-99218.0,-7391.461538461538,-1141.4615384615386,2055.0,-50.53846153846154,30.076923076923077,-37.53846153846154
178.0,-99218.0,-7361.423076923077,-1111.423076923077,2054.5,-50.57692307692308,30.153846153846153,-37.57692307692308
180.0,-99218.0,-7331.384615384615,-1081.3846153846152,2054.0,-50.61538461538461,30.23076923076923,-37.61538461538461
182.0,-99218.0,-7301.346153846154,-1051.3461538461538,2053.5,-50.65384615384615,30.307692307692307,-37.65384615384615
184.0,-99218.0,-7271.307692307692,-1021.3076923076923,2053.0,-50.69230769230769,30.384615384615383,-37.69230769230769
186.0,-99218.0,-7241.2692307692305,-991.2692307692307,2052.5,-50.73076923076923,30.46153846153846,-37.73076923076923
188.0,-99218.0,-7211.2307692307695,-961.2307692307692,2052.0,-50.76923076923077,30.53846153846154,-37.76923076923077
190.0,-99218.0,-7181.192307692308,-931.1923076923076,2051.5,-50.80769230769231,30.615384615384617,-37.80769230769231
192.0,-99218.0,-7151.153846153846,-901.1538461538461,2051.0,-50.84615384615385,30.692307692307693,-37.84615384615385
194.0,-99218.0,-7121.115384615385,-871.1153846153845,2050.5,-50.88461538461539,30.76923076923077,-37.88461538461539
196.0,-99218.0,-7091.076923076923,-841.0769230769231,2050.0,-50.92307692307692,30.846153846153847,-37.92307692307692
198.0,-99218.0,-7061.038461538462,-811.0384615384615,2049.5,-50.96153846153846,30.923076923076923,-37.96153846153846
200.0,-99218.0,-7015.9807692307695,-765.9807692307693,2049.153846153846,-50.980769230769226,31.0,-37.980769230769226
202.0,-99218.0,-6970.923076923077,-720.9230769230769,2049.6153846153848,-50.92307692307692,31.0,-37.92307692307692
204.0,-99218.0,-6940.884615384615,-690.8846153846154,2049.923076923077,-50.88461538461539,31.0,-37.88461538461539
206.0,-99218.0,-6910.846153846154,-660.8461538461538,2050.230769230769,-50.84615384615385,31.0,-37.84615384615385
208.0,-99218.0,-6880.807692307692,-630.8076923076923,2050.5384615384614,-50.80769230769231,31.0,-37.80769230769231
210.0,-99218.0,-6850.7692307692305,-600.7692307692307,2050.846153846154,-50.76923076923077,31.0,-37.76923076923077
212.0,-99218.0,-6820.7307692307695,-570.7307692307693,2051.153846153846,-50.73076923076923,31.0,-37.73076923076923
214.0,-99218.0,-6790.692307692308,-540.6923076923076,2051.4615384615386,-50.69230769230769,31.0,-37.69230769230769
216.0,-99218.0,-6760.653846153846,-510.65384615384613,2051.769230769231,-50.65384615384615,31.0,-37.65384615384615
218.0,-99218.0,-6730.615384615385,-480.6153846153846,2052.076923076923,-50.61538461538461,31.0,-37.61538461538461
220.0,-99218.0,-6700.576923076923,-450.57692307692304,2052.3846153846152,-50.57692307692308,31.0,-37.57692307692308
222.0,-99218.0,-6670.538461538462,-420.53846153846155,2052.6923076923076,-50.53846153846154,31.0,-37.53846153846154
224.0,-99218.0,-6640.5,-390.5,2053.0,-50.5,31.0,-37.5
226.0,-99218.0,-6610.461538461538,-360.46153846153845,2053.3076923076924,-50.46153846153846,31.0,-37.46153846153846
228.0,-99218.0,-6580.423076923077,-330.4230769230769,2053.6153846153848,-50.42307692307692,31.0,-37.42307692307692
230.0,-99218.0,-6550.384615384615,-300.38461538461536,2053.923076923077,-50.38461538461539,31.0,-37.38461538461539
232.0,-99218.0,-6520.346153846154,-270.3461538461538,2054.230769230769,-50.34615384615385,31.0,-37.34615384615385
234.0,-99218.0,-6490.307692307692,-240.30769230769226,2054.5384615384614,-50.30769230769231,31.0,-37.30769230769231
236.0,-99218.0,-6460.2692307692305,-210.26923076923072,2054.846153846154,-50.26923076923077,31.0,-37.26923076923077
238.0,-99218.0,-6430.2307692307695,-180.23076923076917,2055.153846153846,-50.23076923076923,31.0,-37.23076923076923
240.0,-99218.0,-6400.192307692308,-150.19230769230762,2055.4615384615386,-50.19230769230769,31.0,-37.19230769230769
242.0,-99218.0,-6370.153846153846,-120.15384615384608,2055.769230769231,-50.15384615384615,31.0,-37.15384615384615
244.0,-99218.0,-6340.115384615385,-90.11538461538453,2056.076923076923,-50.11538461538461,31.0,-37.11538461538461
246.0,-99218.0,-6310.076923076923,-60.076923076923094,2056.3846153846152,-50.07692307692308,31.0,-37.07692307692308
248.0,-99218.0,-6280.038461538462,-30.038461538461547,2056.6923076923076,-50.03846153846154,31.0,-37.03846153846154
250.0,-99233.03846153847,-6234.961538461539,-30.03846153846154,2057.076923076923,-50.0,30.942307692307693,-37.0
252.0,-99278.15384615384,-6189.846153846154,-120.15384615384616,2057.3076923076924,-50.0,30.76923076923077,-37.0
254.0,-99308.23076923077,-6159.7692307692305,-180.23076923076923,2057.4615384615386,-50.0,30.653846153846153,-37.0
256.0,-99338.30769230769,-6129.692307692308,-240.30769230769232,2057.6153846153848,-50.0,30.53846153846154,-37.0
258.0,-99368.38461538461,-6099.615384615385,-300.3846153846154,2057.769230769231,-50.0,30.423076923076923,-37.0
260.0,-99398.46153846153,-6069.538461538462,-360.46153846153845,2057.923076923077,-50.0,30.307692307692307,-37.0
262.0,-99428.53846153847,-6039.461538461538,-420.53846153846155,2058.076923076923,-50.0,30.192307692307693,-37.0
264.0,-99458.61538461539,-6009.384615384615,-480.61538461538464,2058.230769230769,-50.0,30.076923076923077,-37.0
266.0,-99488.69230769231,-5979.307692307692,-540.6923076923077,2058.3846153846152,-50.0,29.96153846153846,-37.0
268.0,-99518.76923076923,-5949.2307692307695,-600.7692307692308,2058.5384615384614,-50.0,29.846153846153847,-37.0
270.0,-99548.84615384616,-5919.153846153846,-660.8461538461539,2058.6923076923076,-50.0,29.73076923076923,-37.0
272.0,-99578.92307692308,-5889.076923076923,-720.9230769230769,2058.846153846154,-50.0,29.615384615384617,-37.0
274.0,-99609.0,-5859.0,-781.0,2059.0,-50.0,29.5,-37.0
276.0,-99639.07692307692,-5828.923076923077,-841.0769230769231,2059.153846153846,-50.0,29.384615384615383,-37.0
278.0,-99669.15384615384,-5798.846153846154,-901.1538461538462,2059.3076923076924,-50.0,29.26923076923077,-37.0
280.0,-99699.23076923077,-5768.7692307692305,-961.2307692307693,2059.4615384615386,-50.0,29.153846153846153,-37.0
282.0,-99729.30769230769,-5738.692307692308,-1021.3076923076924,2059.6153846153848,-50.0,29.03846153846154,-37.0
284.0,-99759.38461538461,-5708.615384615385,-1081.3846153846155,2059.769230769231,-50.0,28.923076923076923,-37.0
286.0,-99789.46153846153,-5678.538461538462,-1141.4615384615386,2059.923076923077,-50.0,28.807692307692307,-37.0
288.0,-99819.53846153847,-5648.461538461538,-1201.5384615384617,2060.076923076923,-50.0,28.692307692307693,-37.0
290.0,-99849.61538461539,-5618.384615384615,-1261.6153846153848,2060.230769230769,-50.0,28.576923076923077,-37.0
292.0,-99879.69230769231,-5588.307692307692,-1321.6923076923078,2060.3846153846152,-50.0,28.46153846153846,-37.0
294.0,-99909.76923076923,-5558.2307692307695,-1381.769230769231,2060.5384615384614,-50.0,28.346153846153847,-37.0
296.0,-99939.84615384616,-5528.153846153846,-1441.8461538461538,2060.6923076923076,-50.0,28.23076923076923,-37.0
298.0,-99969.92307692308,-5498.076923076923,-1501.923076923077,2060.846153846154,-50.0,28.115384615384617,-37.0
300.0,-100000.0,-5437.961538461539,-1577.0192307692307,2061.0,-50.03846153846154,28.0,-36.980769230769226
302.0,-100000.0,-5347.846153846154,-1622.076923076923,2061.0,-50.15384615384615,28.0,-36.92307692307692
304.0,-100000.0,-5287.7692307692305,-1652.1153846153845,2061.0,-50.23076923076923,28.0,-36.88461538461539
306.0,-100000.0,-5227.692307692308,-1682.1538461538462,2061.0,-50.30769230769231,28.0,-36.84615384615385
308.0,-100000.0,-5167.615384615385,-1712.1923076923076,2061.0,-50.38461538461539,28.0,-36.80769230769231
310.0,-100000.0,-5107.538461538462,-1742.2307692307693,2061.0,-50.46153846153846,28.0,-36.76923076923077
312.0,-100000.0,-5047.461538461538,-1772.2692307692307,2061.0,-50.53846153846154,28.0,-36.73076923076923
314.0,-100000.0,-4987.384615384615,-1802.3076923076924,2061.0,-50.61538461538461,28.0,-36.69230769230769
316.0,-100000.0,-4927.307692307692,-1832.3461538461538,2061.0,-50.69230769230769,28.0,-36.65384615384615
318.0,-100000.0,-4867.2307692307695,-1862.3846153846155,2061.0,-50.76923076923077,28.0,-36.61538461538461
320.0,-100000.0,-4807.153846153846,-1892.423076923077,2061.0,-50.84615384615385,28.0,-36.57692307692308
322.0,-100000.0,-4747.076923076923,-1922.4615384615386,2061.0,-50.92307692307692,28.0,-36.53846153846154
324.0,-100000.0,-4687.0,-1952.5,2061.0,-51.0,28.0,-36.5
326.0,-100000.0,-4626.923076923077,-1982.5384615384614,2061.0,-51.07692307692308,28.0,-36.46153846153846
328.0,-100000.0,-4566.846153846154,-2012.576923076923,2061.0,-51.15384615384615,28.0,-36.42307692307692
330.0,-100000.0,-4506.7692307692305,-2042.6153846153848,2061.0,-51.23076923076923,28.0,-36.38461538461539
332.0,-100000.0,-4446.692307692308,-2072.653846153846,2061.0,-51.30769230769231,28.0,-36.34615384615385
334.0,-100000.0,-4386.615384615385,-2102.6923076923076,2061.0,-51.38461538461539,28.0,-36.30769230769231
336.0,-100000.0,-4326.538461538461,-2132.7307692307695,2061.0,-51.46153846153846,28.0,-36.26923076923077
338.0,-100000.0,-4266.461538461538,-2162.769230769231,2061.0,-51.53846153846154,28.0,-36.23076923076923
340.0,-100000.0,-4206.384615384615,-2192.8076923076924,2061.0,-51.61538461538461,28.0,-36.19230769230769
342.0,-100000.0,-4146.307692307692,-2222.846153846154,2061.0,-51.69230769230769,28.0,-36.15384615384615
344.0,-100000.0,-4086.230769230769,-2252.8846153846152,2061.0,-51.76923076923077,28.0,-36.11538461538461
346.0,-100000.0,-4026.153846153846,-2282.923076923077,2061.0,-51.84615384615385,28.0,-36.07692307692308
348.0,-100000.0,-3966.076923076923,-2312.9615384615386,2061.0,-51.92307692307692,28.0,-36.03846153846154
350.0,-100000.0,-3951.076923076923,-2327.9807692307695,2060.923076923077,-52.019230769230774,28.0,-35.980769230769226
352.0,-100000.0,-4086.3076923076924,-2282.923076923077,2060.6923076923076,-52.07692307692308,28.0,-35.92307692307692
354.0,-100000.0,-4176.461538461538,-2252.8846153846152,2060.5384615384614,-52.11538461538461,28.0,-35.88461538461539
356.0,-100000.0,-4266.615384615385,-2222.846153846154,2060.3846153846152,-52.15384615384615,28.0,-35.84615384615385
358.0,-100000.0,-4356.7692307692305,-2192.8076923076924,2060.230769230769,-52.19230769230769,28.0,-35.80769230769231
360.0,-100000.0,-4446.923076923077,-2162.769230769231,2060.076923076923,-52.23076923076923,28.0,-35.76923076923077
362.0,-100000.0,-4537.076923076923,-2132.730769230769,2059.923076923077,-52.26923076923077,28.0,-35.73076923076923
364.0,-100000.0,-4627.2307692307695,-2102.6923076923076,2059.769230769231,-52.30769230769231,28.0,-35.69230769230769
366.0,-100000.0,-4717.384615384615,-2072.653846153846,2059.6153846153848,-52.34615384615385,28.0,-35.65384615384615
368.0,-100000.0,-4807.538461538462,-2042.6153846153845,2059.4615384615386,-52.38461538461539,28.0,-35.61538461538461
370.0,-100000.0,-4897.692307692308,-2012.576923076923,2059.3076923076924,-52.42307692307692,28.0,-35.57692307692308
372.0,-100000.0,-4987.846153846154,-1982.5384615384614,2059.153846153846,-52.46153846153846,28.0,-35.53846153846154
374.0,-100000.0,-5078.0,-1952.5,2059.0,-52.5,28.0,-35.5
376.0,-100000.0,-5168.153846153846,-1922.4615384615386,2058.846153846154,-52.53846153846154,28.0,-35.46153846153846
378.0,-100000.0,-5258.307692307692,-1892.423076923077,2058.6923076923076,-52.57692307692308,28.0,-35.42307692307692
380.0,-100000.0,-5348.461538461539,-1862.3846153846152,2058.5384615384614,-52.61538461538461,28.0,-35.38461538461539
382.0,-100000.0,-5438.615384615385,-1832.3461538461538,2058.3846153846152,-52.65384615384615,28.0,-35.34615384615385
384.0,-100000.0,-5528.7692307692305,-1802.3076923076924,2058.230769230769,-52.69230769230769,28.0,-35.30769230769231
386.0,-100000.0,-5618.923076923077,-1772.2692307692307,2058.076923076923,-52.73076923076923,28.0,-35.26923076923077
388.0,-100000.0,-5709.076923076924,-1742.230769230769,2057.923076923077,-52.76923076923077,28.0,-35.23076923076923
390.0,-100000.0,-5799.2307692307695,-1712.1923076923076,2057.769230769231,-52.80769230769231,28.0,-35.19230769230769
392.0,-100000.0,-5889.384615384615,-1682.1538461538462,2057.6153846153848,-52.84615384615385,28.0,-35.15384615384615
394.0,-100000.0,-5979.538461538462,-1652.1153846153845,2057.4615384615386,-52.88461538461539,28.0,-35.11538461538461
396.0,-100000.0,-6069.692307692308,-1622.076923076923,2057.3076923076924,-52.92307692307692,28.0,-35.07692307692308
398.0,-100000.0,-6159.846153846154,-1592.0384615384614,2057.153846153846,-52.96153846153846,28.0,-35.03846153846154
400.0,-100000.0,-6250.0,-1546.9807692307693,2057.1923076923076,-53.019230769230774,28.01923076923077,-34.96153846153846
402.0,-100000.0,-6250.0,-1501.923076923077,2057.769230769231,-53.07692307692308,28.076923076923077,-34.84615384615385
404.0,-100000.0,-6250.0,-1471.8846153846155,2058.153846153846,-53.11538461538461,28.115384615384617,-34.76923076923077
406.0,-100000.0,-6250.0,-1441.8461538461538,2058.5384615384614,-53.15384615384615,28.153846153846153,-34.69230769230769
408.0,-100000.0,-6250.0,-1411.8076923076924,2058.923076923077,-53.19230769230769,28.192307692307693,-34.61538461538461
410.0,-100000.0,-6250.0,-1381.7692307692307,2059.3076923076924,-53.23076923076923,28.23076923076923,-34.53846153846154
412.0,-100000.0,-6250.0,-1351.7307692307693,2059.6923076923076,-53.26923076923077,28.26923076923077,-34.46153846153846
414.0,-100000.0,-6250.0,-1321.6923076923076,2060.076923076923,-53.30769230769231,28.307692307692307,-34.38461538461539
416.0,-100000.0,-6250.0,-1291.6538461538462,2060.4615384615386,-53.34615384615385,28.346153846153847,-34.30769230769231
418.0,-100000.0,-6250.0,-1261.6153846153845,2060.846153846154,-53.38461538461539,28.384615384615383,-34.23076923076923
420.0,-100000.0,-6250.0,-1231.576923076923,2061.230769230769,-53.42307692307692,28.423076923076923,-34.15384615384615
422.0,-100000.0,-6250.0,-1201.5384615384614,2061.6153846153848,-53.46153846153846,28.46153846153846,-34.07692307692308
424.0,-100000.0,-6250.0,-1171.5,2062.0,-53.5,28.5,-34.0
426.0,-100000.0,-6250.0,-1141.4615384615386,2062.3846153846152,-53.53846153846154,28.53846153846154,-33.92307692307692
428.0,-100000.0,-6250.0,-1111.423076923077,2062.769230769231,-53.57692307692308,28.576923076923077,-33.84615384615385
430.0,-100000.0,-6250.0,-1081.3846153846152,2063.153846153846,-53.61538461538461,28.615384615384617,-33.76923076923077
432.0,-100000.0,-6250.0,-1051.3461538461538,2063.5384615384614,-53.65384615384615,28.653846153846153,-33.69230769230769
434.0,-100000.0,-6250.0,-1021.3076923076923,2063.923076923077,-53.69230769230769,28.692307692307693,-33.61538461538461
436.0,-100000.0,-6250.0,-991.2692307692307,2064.3076923076924,-53.73076923076923,28.73076923076923,-33.53846153846154
438.0,-100000.0,-6250.0,-961.2307692307692,2064.6923076923076,-53.76923076923077,28.76923076923077,-33.46153846153846
440.0,-100000.0,-6250.0,-931.1923076923076,2065.076923076923,-53.80769230769231,28.807692307692307,-33.38461538461539
442.0,-100000.0,-6250.0,-901.1538461538461,2065.4615384615386,-53.84615384615385,28.846153846153847,-33.30769230769231
444.0,-100000.0,-6250.0,-871.1153846153845,2065.846153846154,-53.88461538461539,28.884615384615383,-33.23076923076923
446.0,-100000.0,-6250.0,-841.0769230769231,2066.230769230769,-53.92307692307692,28.923076923076923,-33.15384615384615
448.0,-100000.0,-6250.0,-811.0384615384615,2066.6153846153848,-53.96153846153846,28.96153846153846,-33.07692307692308
450.0,-100015.01923076923,-6250.0,-781.0,2067.0192307692305,-54.0,29.0,-32.980769230769226
452.0,-100060.07692307692,-6250.0,-781.0,2067.076923076923,-54.0,29.0,-32.92307692307692
454.0,-100090.11538461539,-6250.0,-781.0,2067.1153846153848,-54.0,29.0,-32.88461538461539
456.0,-100120.15384615384,-6250.0,-781.0,2067.153846153846,-54.0,29.0,-32.84615384615385
458.0,-100150.19230769231,-6250.0,-781.0,2067.1923076923076,-54.0,29.0,-32.80769230769231
460.0,-100180.23076923077,-6250.0,-781.0,2067.230769230769,-54.0,29.0,-32.76923076923077
462.0,-100210.26923076923,-6250.0,-781.0,2067.269230769231,-54.0,29.0,-32.73076923076923
464.0,-100240.30769230769,-6250.0,-781.0,2067.3076923076924,-54.0,29.0,-32.69230769230769
466.0,-100270.34615384616,-6250.0,-781.0,2067.346153846154,-54.0,29.0,-32.65384615384615
468.0,-100300.38461538461,-6250.0,-781.0,2067.3846153846152,-54.0,29.0,-32.61538461538461
470.0,-100330.42307692308,-6250.0,-781.0,2067.423076923077,-54.0,29.0,-32.57692307692308
472.0,-100360.46153846153,-6250.0,-781.0,2067.4615384615386,-54.0,29.0,-32.53846153846154
474.0,-100390.5,-6250.0,-781.0,2067.5,-54.0,29.0,-32.5
476.0,-100420.53846153847,-6250.0,-781.0,2067.5384615384614,-54.0,29.0,-32.46153846153846
478.0,-100450.57692307692,-6250.0,-781.0,2067.576923076923,-54.0,29.0,-32.42307692307692
480.0,-100480.61538461539,-6250.0,-781.0,2067.6153846153848,-54.0,29.0,-32.38461538461539
482.0,-100510.65384615384,-6250.0,-781.0,2067.653846153846,-54.0,29.0,-32.34615384615385
484.0,-100540.69230769231,-6250.0,-781.0,2067.6923076923076,-54.0,29.0,-32.30769230769231
486.0,-100570.73076923077,-6250.0,-781.0,2067.730769230769,-54.0,29.0,-32.26923076923077
488.0,-100600.76923076923,-6250.0,-781.0,2067.769230769231,-54.0,29.0,-32.23076923076923
490.0,-100630.80769230769,-6250.0,-781.0,2067.8076923076924,-54.0,29.0,-32.19230769230769
492.0,-100660.84615384616,-6250.0,-781.0,2067.846153846154,-54.0,29.0,-32.15384615384615
494.0,-100690.88461538461,-6250.0,-781.0,2067.8846153846152,-54.0,29.0,-32.11538461538461
496.0,-100720.92307692308,-6250.0,-781.0,2067.923076923077,-54.0,29.0,-32.07692307692308
498.0,-100750.96153846153,-6250.0,-781.0,2067.9615384615386,-54.0,29.0,-32.03846153846154
500.0,-100781.0,-6234.961538461539,-765.9807692307693,2067.673076923077,-54.019230769230774,29.01923076923077,-32.0
502.0,-100781.0,-6189.846153846154,-720.9230769230769,2066.6923076923076,-54.07692307692308,29.076923076923077,-32.0
504.0,-100781.0,-6159.7692307692305,-690.8846153846154,2066.0384615384614,-54.11538461538461,29.115384615384617,-32.0
506.0,-100781.0,-6129.692307692308,-660.8461538461538,2065.3846153846152,-54.15384615384615,29.153846153846153,-32.0
508.0,-100781.0,-6099.615384615385,-630.8076923076923,2064.730769230769,-54.19230769230769,29.192307692307693,-32.0
510.0,-100781.0,-6069.538461538462,-600.7692307692307,2064.076923076923,-54.23076923076923,29.23076923076923,-32.0
512.0,-100781.0,-6039.461538461538,-570.7307692307693,2063.423076923077,-54.26923076923077,29.26923076923077,-32.0
514.0,-100781.0,-6009.384615384615,-540.6923076923076,2062.769230769231,-54.30769230769231,29.307692307692307,-32.0
516.0,-100781.0,-5979.307692307692,-510.65384615384613,2062.1153846153848,-54.34615384615385,29.346153846153847,-32.0
518.0,-100781.0,-5949.2307692307695,-480.6153846153846,2061.4615384615386,-54.38461538461539,29.384615384615383,-32.0
520.0,-100781.0,-5919.153846153846,-450.57692307692304,2060.8076923076924,-54.42307692307692,29.423076923076923,-32.0
522.0,-100781.0,-5889.076923076923,-420.53846153846155,2060.153846153846,-54.46153846153846,29.46153846153846,-32.0
524.0,-100781.0,-5859.0,-390.5,2059.5,-54.5,29.5,-32.0
526.0,-100781.0,-5828.923076923077,-360.46153846153845,2058.846153846154,-54.53846153846154,29.53846153846154,-32.0
528.0,-100781.0,-5798.846153846154,-330.4230769230769,2058.1923076923076,-54.57692307692308,29.576923076923077,-32.0
530.0,-100781.0,-5768.7692307692305,-300.38461538461536,2057.5384615384614,-54.61538461538461,29.615384615384617,-32.0
532.0,-100781.0,-5738.692307692308,-270.3461538461538,2056.8846153846152,-54.65384615384615,29.653846153846153,-32.0
534.0,-100781.0,-5708.615384615385,-240.30769230769226,2056.230769230769,-54.69230769230769,29.692307692307693,-32.0
536.0,-100781.0,-5678.538461538462,-210.26923076923072,2055.576923076923,-54.73076923076923,29.73076923076923,-32.0
538.0,-100781.0,-5648.461538461538,-180.23076923076917,2054.923076923077,-54.76923076923077,29.76923076923077,-32.0
540.0,-100781.0,-5618.384615384615,-150.19230769230762,2054.269230769231,-54.80769230769231,29.807692307692307,-32.0
542.0,-100781.0,-5588.307692307692,-120.15384615384608,2053.6153846153848,-54.84615384615385,29.846153846153847,-32.0
544.0,-100781.0,-5558.2307692307695,-90.11538461538453,2052.9615384615386,-54.88461538461539,29.884615384615383,-32.0
546.0,-100781.0,-5528.153846153846,-60.076923076923094,2052.3076923076924,-54.92307692307692,29.923076923076923,-32.0
548.0,-100781.0,-5498.076923076923,-30.038461538461547,2051.653846153846,-54.96153846153846,29.96153846153846,-32.0
550.0,-100796.01923076923,-5468.0,-30.03846153846154,2051.1153846153848,-55.0,30.03846153846154,-31.98076923076923
552.0,-100841.07692307692,-5468.0,-120.15384615384616,2051.4615384615386,-55.0,30.153846153846153,-31.923076923076923
554.0,-100871.11538461539,-5468.0,-180.23076923076923,2051.6923076923076,-55.0,30.23076923076923,-31.884615384615383
556.0,-100901.15384615384,-5468.0,-240.30769230769232,2051.923076923077,-55.0,30.307692307692307,-31.846153846153847
558.0,-100931.19230769231,-5468.0,-300.3846153846154,2052.153846153846,-55.0,30.384615384615383,-31.807692307692307
560.0,-100961.23076923077,-5468.0,-360.46153846153845,2052.3846153846152,-55.0,30.46153846153846,-31.76923076923077
562.0,-100991.26923076923,-5468.0,-420.53846153846155,2052.6153846153848,-55.0,30.53846153846154,-31.73076923076923
564.0,-101021.30769230769,-5468.0,-480.61538461538464,2052.846153846154,-55.0,30.615384615384617,-31.692307692307693
566.0,-101051.34615384616,-5468.0,-540.6923076923077,2053.076923076923,-55.0,30.692307692307693,-31.653846153846153
568.0,-101081.38461538461,-5468.0,-600.7692307692308,2053.3076923076924,-55.0,30.76923076923077,-31.615384615384617
570.0,-101111.42307692308,-5468.0,-660.8461538461539,2053.5384615384614,-55.0,30.846153846153847,-31.576923076923077
572.0,-101141.46153846153,-5468.0,-720.9230769230769,2053.769230769231,-55.0,30.923076923076923,-31.53846153846154
574.0,-101171.5,-5468.0,-781.0,2054.0,-55.0,31.0,-31.5
576.0,-101201.53846153847,-5468.0,-841.0769230769231,2054.230769230769,-55.0,31.076923076923077,-31.46153846153846
578.0,-101231.57692307692,-5468.0,-901.1538461538462,2054.4615384615386,-55.0,31.153846153846153,-31.423076923076923
580.0,-101261.61538461539,-5468.0,-961.2307692307693,2054.6923076923076,-55.0,31.23076923076923,-31.384615384615383
582.0,-101291.65384615384,-5468.0,-1021.3076923076924,2054.923076923077,-55.0,31.307692307692307,-31.346153846153847
584.0,-101321.69230769231,-5468.0,-1081.3846153846155,2055.153846153846,-55.0,31.384615384615383,-31.307692307692307
586.0,-101351.73076923077,-5468.0,-1141.4615384615386,2055.3846153846152,-55.0,31.46153846153846,-31.26923076923077
588.0,-101381.76923076923,-5468.0,-1201.5384615384617,2055.6153846153848,-55.0,31.53846153846154,-31.23076923076923
590.0,-101411.80769230769,-5468.0,-1261.6153846153848,2055.846153846154,-55.0,31.615384615384617,-31.192307692307693
592.0,-101441.84615384616,-5468.0,-1321.6923076923078,2056.076923076923,-55.0,31.692307692307693,-31.153846153846153
594.0,-101471.88461538461,-5468.0,-1381.769230769231,2056.3076923076924,-55.0,31.76923076923077,-31.115384615384617
596.0,-101501.92307692308,-5468.0,-1441.8461538461538,2056.5384615384614,-55.0,31.846153846153847,-31.076923076923077
598.0,-101531.96153846153,-5468.0,-1501.923076923077,2056.769230769231,-55.0,31.923076923076923,-31.03846153846154
600.0,-101546.98076923077,-5483.038461538461,-1592.0576923076924,2056.923076923077,-55.0,32.0,-31.0
602.0,-101501.92307692308,-5528.153846153846,-1682.2307692307693,2056.6923076923076,-55.0,32.0,-31.0
604.0,-101471.88461538461,-5558.2307692307695,-1742.3461538461538,2056.5384615384614,-55.0,32.0,-31.0
606.0,-101441.84615384616,-5588.307692307692,-1802.4615384615386,2056.3846153846152,-55.0,32.0,-31.0
608.0,-101411.80769230769,-5618.384615384615,-1862.576923076923,2056.230769230769,-55.0,32.0,-31.0
610.0,-101381.76923076923,-5648.461538461538,-1922.6923076923076,2056.076923076923,-55.0,32.0,-31.0
612.0,-101351.73076923077,-5678.538461538462,-1982.8076923076924,2055.923076923077,-55.0,32.0,-31.0
614.0,-101321.69230769231,-5708.615384615385,-2042.923076923077,2055.769230769231,-55.0,32.0,-31.0
616.0,-101291.65384615384,-5738.692307692308,-2103.0384615384614,2055.6153846153848,-55.0,32.0,-31.0
618.0,-101261.61538461539,-5768.7692307692305,-2163.153846153846,2055.4615384615386,-55.0,32.0,-31.0
620.0,-101231.57692307692,-5798.846153846154,-2223.2692307692305,2055.3076923076924,-55.0,32.0,-31.0
622.0,-101201.53846153847,-5828.923076923077,-2283.3846153846152,2055.153846153846,-55.0,32.0,-31.0
624.0,-101171.5,-5859.0,-2343.5,2055.0,-55.0,32.0,-31.0
626.0,-101141.46153846153,-5889.076923076923,-2403.6153846153848,2054.846153846154,-55.0,32.0,-31.0
628.0,-101111.42307692308,-5919.153846153846,-2463.730769230769,2054.6923076923076,-55.0,32.0,-31.0
630.0,-101081.38461538461,-5949.2307692307695,-2523.846153846154,2054.5384615384614,-55.0,32.0,-31.0
632.0,-101051.34615384616,-5979.307692307692,-2583.9615384615386,2054.3846153846152,-55.0,32.0,-31.0
634.0,-101021.30769230769,-6009.384615384615,-2644.076923076923,2054.230769230769,-55.0,32.0,-31.0
636.0,-100991.26923076923,-6039.461538461538,-2704.1923076923076,2054.076923076923,-55.0,32.0,-31.0
638.0,-100961.23076923077,-6069.538461538462,-2764.3076923076924,2053.923076923077,-55.0,32.0,-31.0
640.0,-100931.19230769231,-6099.615384615385,-2824.423076923077,2053.769230769231,-55.0,32.0,-31.0
642.0,-100901.15384615384,-6129.692307692308,-2884.5384615384614,2053.6153846153848,-55.0,32.0,-31.0
644.0,-100871.11538461539,-6159.7692307692305,-2944.653846153846,2053.4615384615386,-55.0,32.0,-31.0
646.0,-100841.07692307692,-6189.846153846154,-3004.7692307692305,2053.3076923076924,-55.0,32.0,-31.0
648.0,-100811.03846153847,-6219.923076923077,-3064.8846153846152,2053.153846153846,-55.0,32.0,-31.0
650.0,-100781.0,-6234.961538461539,-3109.9615384615386,2052.9615384615386,-55.019230769230774,31.98076923076923,-30.98076923076923
652.0,-100781.0,-6189.846153846154,-3064.846153846154,2052.846153846154,-55.07692307692308,31.923076923076923,-30.923076923076923
654.0,-100781.0,-6159.7692307692305,-3034.769230769231,2052.769230769231,-55.11538461538461,31.884615384615383,-30.884615384615383
656.0,-100781.0,-6129.692307692308,-3004.6923076923076,2052.6923076923076,-55.15384615384615,31.846153846153847,-30.846153846153847
658.0,-100781.0,-6099.615384615385,-2974.6153846153848,2052.6153846153848,-55.19230769230769,31.807692307692307,-30.807692307692307
660.0,-100781.0,-6069.538461538462,-2944.5384615384614,2052.5384615384614,-55.23076923076923,31.76923076923077,-30.76923076923077
662.0,-100781.0,-6039.461538461538,-2914.4615384615386,2052.4615384615386,-55.26923076923077,31.73076923076923,-30.73076923076923
664.0,-100781.0,-6009.384615384615,-2884.3846153846152,2052.3846153846152,-55.30769230769231,31.692307692307693,-30.692307692307693
666.0,-100781.0,-5979.307692307692,-2854.3076923076924,2052.3076923076924,-55.34615384615385,31.653846153846153,-30.653846153846153
668.0,-100781.0,-5949.2307692307695,-2824.230769230769,2052.230769230769,-55.38461538461539,31.615384615384617,-30.615384615384617
670.0,-100781.0,-5919.153846153846,-2794.153846153846,2052.153846153846,-55.42307692307692,31.576923076923077,-30.576923076923077
672.0,-100781.0,-5889.076923076923,-2764.076923076923,2052.076923076923,-55.46153846153846,31.53846153846154,-30.53846153846154
674.0,-100781.0,-5859.0,-2734.0,2052.0,-55.5,31.5,-30.5
676.0,-100781.0,-5828.923076923077,-2703.923076923077,2051.923076923077,-55.53846153846154,31.46153846153846,-30.46153846153846
678.0,-100781.0,-5798.846153846154,-2673.846153846154,2051.846153846154,-55.57692307692308,31.423076923076923,-30.423076923076923
680.0,-100781.0,-5768.7692307692305,-2643.769230769231,2051.769230769231,-55.61538461538461,31.384615384615383,-30.384615384615383
682.0,-100781.0,-5738.692307692308,-2613.6923076923076,2051.6923076923076,-55.65384615384615,31.346153846153847,-30.346153846153847
684.0,-100781.0,-5708.615384615385,-2583.6153846153848,2051.6153846153848,-55.69230769230769,31.307692307692307,-30.307692307692307
686.0,-100781.0,-5678.538461538462,-2553.5384615384614,2051.5384615384614,-55.73076923076923,31.26923076923077,-30.26923076923077
688.0,-100781.0,-5648.461538461538,-2523.4615384615386,2051.4615384615386,-55.76923076923077,31.23076923076923,-30.23076923076923
690.0,-100781.0,-5618.384615384615,-2493.3846153846152,2051.3846153846152,-55.80769230769231,31.192307692307693,-30.192307692307693
692.0,-100781.0,-5588.307692307692,-2463.3076923076924,2051.3076923076924,-55.84615384615385,31.153846153846153,-30.153846153846153
694.0,-100781.0,-5558.2307692307695,-2433.2307692307695,2051.230769230769,-55.88461538461539,31.115384615384617,-30.115384615384617
696.0,-100781.0,-5528.153846153846,-2403.153846153846,2051.153846153846,-55.92307692307692,31.076923076923077,-30.076923076923077
698.0,-100781.0,-5498.076923076923,-2373.076923076923,2051.076923076923,-55.96153846153846,31.03846153846154,-30.03846153846154
700.0,-100781.0,-5483.038461538461,-2327.9807692307695,2051.0,-56.03846153846154,31.03846153846154,-30.0
702.0,-100781.0,-5528.153846153846,-2282.923076923077,2051.0,-56.15384615384615,31.153846153846153,-30.0
704.0,-100781.0,-5558.2307692307695,-2252.8846153846152,2051.0,-56.23076923076923,31.23076923076923,-30.0
706.0,-100781.0,-5588.307692307692,-2222.846153846154,2051.0,-56.30769230769231,31.307692307692307,-30.0
708.0,-100781.0,-5618.384615384615,-2192.8076923076924,2051.0,-56.38461538461539,31.384615384615383,-30.0
710.0,-100781.0,-5648.461538461538,-2162.769230769231,2051.0,-56.46153846153846,31.46153846153846,-30.0
712.0,-100781.0,-5678.538461538462,-2132.730769230769,2051.0,-56.53846153846154,31.53846153846154,-30.0
714.0,-100781.0,-5708.615384615385,-2102.6923076923076,2051.0,-56.61538461538461,31.615384615384617,-30.0
716.0,-100781.0,-5738.692307692308,-2072.653846153846,2051.0,-56.69230769230769,31.692307692307693,-30.0
718.0,-100781.0,-5768.7692307692305,-2042.6153846153845,2051.0,-56.76923076923077,31.76923076923077,-30.0
720.0,-100781.0,-5798.846153846154,-2012.576923076923,2051.0,-56.84615384615385,31.846153846153847,-30.0
722.0,-100781.0,-5828.923076923077,-1982.5384615384614,2051.0,-56.92307692307692,31.923076923076923,-30.0
724.0,-100781.0,-5859.0,-1952.5,2051.0,-57.0,32.0,-30.0
726.0,-100781.0,-5889.076923076923,-1922.4615384615386,2051.0,-57.07692307692308,32.07692307692308,-30.0
728.0,-100781.0,-5919.153846153846,-1892.423076923077,2051.0,-57.15384615384615,32.15384615384615,-30.0
730.0,-100781.0,-5949.2307692307695,-1862.3846153846152,2051.0,-57.23076923076923,32.23076923076923,-30.0
732.0,-100781.0,-5979.307692307692,-1832.3461538461538,2051.0,-57.30769230769231,32.30769230769231,-30.0
734.0,-100781.0,-6009.384615384615,-1802.3076923076924,2051.0,-57.38461538461539,32.38461538461539,-30.0
736.0,-100781.0,-6039.461538461538,-1772.2692307692307,2051.0,-57.46153846153846,32.46153846153846,-30.0
738.0,-100781.0,-6069.538461538462,-1742.230769230769,2051.0,-57.53846153846154,32.53846153846154,-30.0
740.0,-100781.0,-6099.615384615385,-1712.1923076923076,2051.0,-57.61538461538461,32.61538461538461,-30.0
742.0,-100781.0,-6129.692307692308,-1682.1538461538462,2051.0,-57.69230769230769,32.69230769230769,-30.0
744.0,-100781.0,-6159.7692307692305,-1652.1153846153845,2051.0,-57.76923076923077,32.76923076923077,-30.0
746.0,-100781.0,-6189.846153846154,-1622.076923076923,2051.0,-57.84615384615385,32.84615384615385,-30.0
748.0,-100781.0,-6219.923076923077,-1592.0384615384614,2051.0,-57.92307692307692,32.92307692307692,-30.0
750.0,-100781.0,-6250.0,-1546.9807692307693,2051.153846153846,-58.03846153846154,32.94230769230769,-30.0
752.0,-100781.0,-6250.0,-1501.923076923077,2051.6153846153848,-58.15384615384615,32.76923076923077,-30.0
754.0,-100781.0,-6250.0,-1471.8846153846155,2051.923076923077,-58.23076923076923,32.65384615384615,-30.0
756.0,-100781.0,-6250.0,-1441.8461538461538,2052.230769230769,-58.30769230769231,32.53846153846154,-30.0
758.0,-100781.0,-6250.0,-1411.8076923076924,2052.5384615384614,-58.38461538461539,32.42307692307692,-30.0
760.0,-100781.0,-6250.0,-1381.7692307692307,2052.846153846154,-58.46153846153846,32.30769230769231,-30.0
762.0,-100781.0,-6250.0,-1351.7307692307693,2053.153846153846,-58.53846153846154,32.19230769230769,-30.0
764.0,-100781.0,-6250.0,-1321.6923076923076,2053.4615384615386,-58.61538461538461,32.07692307692308,-30.0
766.0,-100781.0,-6250.0,-1291.6538461538462,2053.769230769231,-58.69230769230769,31.96153846153846,-30.0
768.0,-100781.0,-6250.0,-1261.6153846153845,2054.076923076923,-58.76923076923077,31.846153846153847,-30.0
770.0,-100781.0,-6250.0,-1231.576923076923,2054.3846153846152,-58.84615384615385,31.73076923076923,-30.0
772.0,-100781.0,-6250.0,-1201.5384615384614,2054.6923076923076,-58.92307692307692,31.615384615384617,-30.0
774.0,-100781.0,-6250.0,-1171.5,2055.0,-59.0,31.5,-30.0
776.0,-100781.0,-6250.0,-1141.4615384615386,2055.3076923076924,-59.07692307692308,31.384615384615383,-30.0
778.0,-100781.0,-6250.0,-1111.423076923077,2055.6153846153848,-59.15384615384615,31.26923076923077,-30.0
780.0,-100781.0,-6250.0,-1081.3846153846152,2055.923076923077,-59.23076923076923,31.153846153846153,-30.0
782.0,-100781.0,-6250.0,-1051.3461538461538,2056.230769230769,-59.30769230769231,31.03846153846154,-30.0
784.0,-100781.0,-6250.0,-1021.3076923076923,2056.5384615384614,-59.38461538461539,30.923076923076923,-30.0
786.0,-100781.0,-6250.0,-991.2692307692307,2056.846153846154,-59.46153846153846,30.807692307692307,-30.0
788.0,-100781.0,-6250.0,-961.2307692307692,2057.153846153846,-59.53846153846154,30.692307692307693,-30.0
790.0,-100781.0,-6250.0,-931.1923076923076,2057.4615384615386,-59.61538461538461,30.576923076923077,-30.0
792.0,-100781.0,-6250.0,-901.1538461538461,2057.769230769231,-59.69230769230769,30.46153846153846,-30.0
794.0,-100781.0,-6250.0,-871.1153846153845,2058.076923076923,-59.76923076923077,30.346153846153847,-30.0
796.0,-100781.0,-6250.0,-841.0769230769231,2058.3846153846152,-59.84615384615385,30.23076923076923,-30.0
798.0,-100781.0,-6250.0,-811.0384615384615,2058.6923076923076,-59.92307692307692,30.115384615384617,-30.0
800.0,-100796.01923076923,-6219.942307692308,-826.0769230769231,2059.0,-60.07692307692308,29.942307692307693,-30.0
802.0,-100841.07692307692,-6129.7692307692305,-961.3076923076924,2059.0,-60.30769230769231,29.76923076923077,-30.0
804.0,-100871.11538461539,-6069.653846153846,-1051.4615384615386,2059.0,-60.46153846153846,29.653846153846153,-30.0
806.0,-100901.15384615384,-6009.538461538462,-1141.6153846153848,2059.0,-60.61538461538461,29.53846153846154,-30.0
808.0,-100931.19230769231,-5949.423076923077,-1231.769230769231,2059.0,-60.76923076923077,29.423076923076923,-30.0
810.0,-100961.23076923077,-5889.307692307692,-1321.923076923077,2059.0,-60.92307692307692,29.307692307692307,-30.0
812.0,-100991.26923076923,-5829.192307692308,-1412.076923076923,2059.0,-61.07692307692308,29.192307692307693,-30.0
814.0,-101021.30769230769,-5769.076923076923,-1502.2307692307693,2059.0,-61.23076923076923,29.076923076923077,-30.0
816.0,-101051.34615384616,-5708.961538461538,-1592.3846153846155,2059.0,-61.38461538461539,28.96153846153846,-30.0
818.0,-101081.38461538461,-5648.846153846154,-1682.5384615384617,2059.0,-61.53846153846154,28.846153846153847,-30.0
820.0,-101111.42307692308,-5588.7307692307695,-1772.6923076923076,2059.0,-61.69230769230769,28.73076923076923,-30.0
822.0,-101141.46153846153,-5528.615384615385,-1862.8461538461538,2059.0,-61.84615384615385,28.615384615384617,-30.0
824.0,-101171.5,-5468.5,-1953.0,2059.0,-62.0,28.5,-30.0
826.0,-101201.53846153847,-5408.384615384615,-2043.1538461538462,2059.0,-62.15384615384615,28.384615384615383,-30.0
828.0,-101231.57692307692,-5348.2692307692305,-2133.3076923076924,2059.0,-62.30769230769231,28.26923076923077,-30.0
830.0,-101261.61538461539,-5288.153846153846,-2223.4615384615386,2059.0,-62.46153846153846,28.153846153846153,-30.0
832.0,-101291.65384615384,-5228.038461538462,-2313.6153846153848,2059.0,-62.61538461538461,28.03846153846154,-30.0
834.0,-101321.69230769231,-5167.923076923077,-2403.769230769231,2059.0,-62.76923076923077,27.923076923076923,-30.0
836.0,-101351.73076923077,-5107.807692307692,-2493.923076923077,2059.0,-62.92307692307692,27.807692307692307,-30.0
838.0,-101381.76923076923,-5047.692307692308,-2584.0769230769233,2059.0,-63.07692307692308,27.692307692307693,-30.0
840.0,-101411.80769230769,-4987.576923076923,-2674.2307692307695,2059.0,-63.23076923076923,27.576923076923077,-30.0
842.0,-101441.84615384616,-4927.461538461539,-2764.3846153846152,2059.0,-63.38461538461539,27.46153846153846,-30.0
844.0,-101471.88461538461,-4867.346153846154,-2854.538461538462,2059.0,-63.53846153846154,27.346153846153847,-30.0
846.0,-101501.92307692308,-4807.2307692307695,-2944.6923076923076,2059.0,-63.69230769230769,27.23076923076923,-30.0
848.0,-101531.96153846153,-4747.115384615385,-3034.846153846154,2059.0,-63.84615384615385,27.115384615384617,-30.0
850.0,-101577.01923076923,-4687.0,-3109.9615384615386,2059.076923076923,-64.03846153846155,26.96153846153846,-30.0
852.0,-101622.07692307692,-4687.0,-3064.846153846154,2059.3076923076924,-64.15384615384616,26.846153846153847,-30.0
854.0,-101652.11538461539,-4687.0,-3034.769230769231,2059.4615384615386,-64.23076923076923,26.76923076923077,-30.0
856.0,-101682.15384615384,-4687.0,-3004.6923076923076,2059.6153846153848,-64.3076923076923,26.692307692307693,-30.0
858.0,-101712.19230769231,-4687.0,-2974.6153846153848,2059.769230769231,-64.38461538461539,26.615384615384617,-30.0
860.0,-101742.23076923077,-4687.0,-2944.5384615384614,2059.923076923077,-64.46153846153847,26.53846153846154,-30.0
862.0,-101772.26923076923,-4687.0,-2914.4615384615386,2060.076923076923,-64.53846153846153,26.46153846153846,-30.0
864.0,-101802.30769230769,-4687.0,-2884.3846153846152,2060.230769230769,-64.61538461538461,26.384615384615383,-30.0
866.0,-101832.34615384616,-4687.0,-2854.3076923076924,2060.3846153846152,-64.6923076923077,26.307692307692307,-30.0
868.0,-101862.38461538461,-4687.0,-2824.230769230769,2060.5384615384614,-64.76923076923077,26.23076923076923,-30.0
870.0,-101892.42307692308,-4687.0,-2794.153846153846,2060.6923076923076,-64.84615384615384,26.153846153846153,-30.0
872.0,-101922.46153846153,-4687.0,-2764.076923076923,2060.846153846154,-64.92307692307692,26.076923076923077,-30.0
874.0,-101952.5,-4687.0,-2734.0,2061.0,-65.0,26.0,-30.0
876.0,-101982.53846153847,-4687.0,-2703.923076923077,2061.153846153846,-65.07692307692308,25.923076923076923,-30.0
878.0,-102012.57692307692,-4687.0,-2673.846153846154,2061.3076923076924,-65.15384615384616,25.846153846153847,-30.0
880.0,-102042.61538461539,-4687.0,-2643.769230769231,2061.4615384615386,-65.23076923076923,25.76923076923077,-30.0
882.0,-102072.65384615384,-4687.0,-2613.6923076923076,2061.6153846153848,-65.3076923076923,25.692307692307693,-30.0
884.0,-102102.69230769231,-4687.0,-2583.6153846153848,2061.769230769231,-65.38461538461539,25.615384615384617,-30.0
886.0,-102132.73076923077,-4687.0,-2553.5384615384614,2061.923076923077,-65.46153846153847,25.53846153846154,-30.0
888.0,-102162.76923076923,-4687.0,-2523.4615384615386,2062.076923076923,-65.53846153846153,25.46153846153846,-30.0
890.0,-102192.80769230769,-4687.0,-2493.3846153846152,2062.230769230769,-65.61538461538461,25.384615384615383,-30.0
892.0,-102222.84615384616,-4687.0,-2463.3076923076924,2062.3846153846152,-65.6923076923077,25.307692307692307,-30.0
894.0,-102252.88461538461,-4687.0,-2433.2307692307695,2062.5384615384614,-65.76923076923077,25.23076923076923,-30.0
896.0,-102282.92307692308,-4687.0,-2403.153846153846,2062.6923076923076,-65.84615384615384,25.153846153846153,-30.0
898.0,-102312.96153846153,-4687.0,-2373.076923076923,2062.846153846154,-65.92307692307692,25.076923076923077,-30.0
900.0,-102327.98076923077,-4687.0,-2343.0,2062.826923076923,-66.01923076923077,24.923076923076923,-30.0
902.0,-102282.92307692308,-4687.0,-2343.0,2062.3076923076924,-66.07692307692308,24.692307692307693,-30.0
904.0,-102252.88461538461,-4687.0,-2343.0,2061.9615384615386,-66.11538461538461,24.53846153846154,-30.0
906.0,-102222.84615384616,-4687.0,-2343.0,2061.6153846153848,-66.15384615384616,24.384615384615383,-30.0
908.0,-102192.80769230769,-4687.0,-2343.0,2061.269230769231,-66.1923076923077,24.23076923076923,-30.0
910.0,-102162.76923076923,-4687.0,-2343.0,2060.923076923077,-66.23076923076923,24.076923076923077,-30.0
912.0,-102132.73076923077,-4687.0,-2343.0,2060.576923076923,-66.26923076923077,23.923076923076923,-30.0
914.0,-102102.69230769231,-4687.0,-2343.0,2060.230769230769,-66.3076923076923,23.76923076923077,-30.0
916.0,-102072.65384615384,-4687.0,-2343.0,2059.8846153846152,-66.34615384615384,23.615384615384617,-30.0
918.0,-102042.61538461539,-4687.0,-2343.0,2059.5384615384614,-66.38461538461539,23.46153846153846,-30.0
920.0,-102012.57692307692,-4687.0,-2343.0,2059.1923076923076,-66.42307692307692,23.307692307692307,-30.0
922.0,-101982.53846153847,-4687.0,-2343.0,2058.846153846154,-66.46153846153847,23.153846153846153,-30.0
924.0,-101952.5,-4687.0,-2343.0,2058.5,-66.5,23.0,-30.0
926.0,-101922.46153846153,-4687.0,-2343.0,2058.153846153846,-66.53846153846153,22.846153846153847,-30.0
928.0,-101892.42307692308,-4687.0,-2343.0,2057.8076923076924,-66.57692307692308,22.692307692307693,-30.0
930.0,-101862.38461538461,-4687.0,-2343.0,2057.4615384615386,-66.61538461538461,22.53846153846154,-30.0
932.0,-101832.34615384616,-4687.0,-2343.0,2057.1153846153848,-66.65384615384616,22.384615384615383,-30.0
934.0,-101802.30769230769,-4687.0,-2343.0,2056.769230769231,-66.6923076923077,22.23076923076923,-30.0
936.0,-101772.26923076923,-4687.0,-2343.0,2056.423076923077,-66.73076923076923,22.076923076923077,-30.0
938.0,-101742.23076923077,-4687.0,-2343.0,2056.076923076923,-66.76923076923077,21.923076923076923,-30.0
940.0,-101712.19230769231,-4687.0,-2343.0,2055.730769230769,-66.8076923076923,21.76923076923077,-30.0
942.0,-101682.15384615384,-4687.0,-2343.0,2055.3846153846152,-66.84615384615384,21.615384615384613,-30.0
944.0,-101652.11538461539,-4687.0,-2343.0,2055.0384615384614,-66.88461538461539,21.46153846153846,-30.0
946.0,-101622.07692307692,-4687.0,-2343.0,2054.6923076923076,-66.92307692307692,21.307692307692307,-30.0
948.0,-101592.03846153847,-4687.0,-2343.0,2054.346153846154,-66.96153846153847,21.153846153846153,-30.0
950.0,-101546.98076923077,-4687.0,-2343.0,2054.2307692307695,-67.0576923076923,20.903846153846153,-29.98076923076923
952.0,-101501.92307692308,-4687.0,-2343.0,2054.923076923077,-67.23076923076923,20.615384615384617,-29.923076923076923
954.0,-101471.88461538461,-4687.0,-2343.0,2055.3846153846152,-67.34615384615384,20.423076923076923,-29.884615384615383
956.0,-101441.84615384616,-4687.0,-2343.0,2055.846153846154,-67.46153846153847,20.23076923076923,-29.846153846153847
958.0,-101411.80769230769,-4687.0,-2343.0,2056.3076923076924,-67.57692307692308,20.03846153846154,-29.807692307692307
960.0,-101381.76923076923,-4687.0,-2343.0,2056.769230769231,-67.6923076923077,19.846153846153847,-29.76923076923077
962.0,-101351.73076923077,-4687.0,-2343.0,2057.230769230769,-67.8076923076923,19.653846153846153,-29.73076923076923
964.0,-101321.69230769231,-4687.0,-2343.0,2057.6923076923076,-67.92307692307692,19.46153846153846,-29.692307692307693
966.0,-101291.65384615384,-4687.0,-2343.0,2058.153846153846,-68.03846153846153,19.26923076923077,-29.653846153846153
968.0,-101261.61538461539,-4687.0,-2343.0,2058.6153846153848,-68.15384615384616,19.076923076923077,-29.615384615384617
970.0,-101231.57692307692,-4687.0,-2343.0,2059.076923076923,-68.26923076923077,18.884615384615383,-29.576923076923077
972.0,-101201.53846153847,-4687.0,-2343.0,2059.5384615384614,-68.38461538461539,18.692307692307693,-29.53846153846154
974.0,-101171.5,-4687.0,-2343.0,2060.0,-68.5,18.5,-29.5
976.0,-101141.46153846153,-4687.0,-2343.0,2060.4615384615386,-68.61538461538461,18.307692307692307,-29.46153846153846
978.0,-101111.42307692308,-4687.0,-2343.0,2060.923076923077,-68.73076923076923,18.115384615384617,-29.423076923076923
980.0,-101081.38461538461,-4687.0,-2343.0,2061.3846153846152,-68.84615384615384,17.923076923076923,-29.384615384615383
982.0,-101051.34615384616,-4687.0,-2343.0,2061.846153846154,-68.96153846153847,17.73076923076923,-29.346153846153847
984.0,-101021.30769230769,-4687.0,-2343.0,2062.3076923076924,-69.07692307692308,17.53846153846154,-29.307692307692307
986.0,-100991.26923076923,-4687.0,-2343.0,2062.769230769231,-69.1923076923077,17.346153846153847,-29.26923076923077
988.0,-100961.23076923077,-4687.0,-2343.0,2063.230769230769,-69.3076923076923,17.153846153846153,-29.23076923076923
990.0,-100931.19230769231,-4687.0,-2343.0,2063.6923076923076,-69.42307692307692,16.96153846153846,-29.192307692307693
992.0,-100901.15384615384,-4687.0,-2343.0,2064.153846153846,-69.53846153846153,16.76923076923077,-29.153846153846153
994.0,-100871.11538461539,-4687.0,-2343.0,2064.6153846153848,-69.65384615384616,16.576923076923077,-29.115384615384617
996.0,-100841.07692307692,-4687.0,-2343.0,2065.076923076923,-69.76923076923077,16.384615384615383,-29.076923076923077
998.0,-100811.03846153847,-4687.0,-2343.0,2065.5384615384614,-69.88461538461539,16.192307692307693,-29.03846153846154
1000.0,-100796.01923076923,-4671.9807692307695,-2327.9807692307695,2065.75,-70.03846153846155,15.961538461538462,-29.01923076923077
1002.0,-100841.07692307692,-4626.923076923077,-2282.923076923077,2065.0,-70.15384615384616,15.846153846153847,-29.076923076923077
1004.0,-100871.11538461539,-4596.884615384615,-2252.8846153846152,2064.5,-70.23076923076923,15.76923076923077,-29.115384615384617
1006.0,-100901.15384615384,-4566.846153846154,-2222.846153846154,2064.0,-70.3076923076923,15.692307692307692,-29.153846153846153
1008.0,-100931.19230769231,-4536.807692307692,-2192.8076923076924,2063.5,-70.38461538461539,15.615384615384615,-29.192307692307693
1010.0,-100961.23076923077,-4506.7692307692305,-2162.769230769231,2063.0,-70.46153846153847,15.538461538461538,-29.23076923076923
1012.0,-100991.26923076923,-4476.7307692307695,-2132.730769230769,2062.5,-70.53846153846153,15.461538461538462,-29.26923076923077
1014.0,-101021.30769230769,-4446.692307692308,-2102.6923076923076,2062.0,-70.61538461538461,15.384615384615385,-29.307692307692307
1016.0,-101051.34615384616,-4416.653846153846,-2072.653846153846,2061.5,-70.6923076923077,15.307692307692308,-29.346153846153847
1018.0,-101081.38461538461,-4386.615384615385,-2042.6153846153845,2061.0,-70.76923076923077,15.23076923076923,-29.384615384615383
1020.0,-101111.42307692308,-4356.576923076923,-2012.576923076923,2060.5,-70.84615384615384,15.153846153846153,-29.423076923076923
1022.0,-101141.46153846153,-4326.538461538462,-1982.5384615384614,2060.0,-70.92307692307692,15.076923076923077,-29.46153846153846
1024.0,-101171.5,-4296.5,-1952.5,2059.5,-71.0,15.0,-29.5
1026.0,-101201.53846153847,-4266.461538461538,-1922.4615384615386,2059.0,-71.07692307692308,14.923076923076923,-29.53846153846154
1028.0,-101231.57692307692,-4236.423076923077,-1892.423076923077,2058.5,-71.15384615384616,14.846153846153847,-29.576923076923077
1030.0,-101261.61538461539,-4206.384615384615,-1862.3846153846152,2058.0,-71.23076923076923,14.76923076923077,-29.615384615384617
1032.0,-101291.65384615384,-4176.346153846154,-1832.3461538461538,2057.5,-71.3076923076923,14.692307692307692,-29.653846153846153
1034.0,-101321.69230769231,-4146.307692307692,-1802.3076923076924,2057.0,-71.38461538461539,14.615384615384615,-29.692307692307693
1036.0,-101351.73076923077,-4116.2692307692305,-1772.2692307692307,2056.5,-71.46153846153847,14.538461538461538,-29.73076923076923
1038.0,-101381.76923076923,-4086.230769230769,-1742.230769230769,2056.0,-71.53846153846153,14.461538461538462,-29.76923076923077
1040.0,-101411.80769230769,-4056.1923076923076,-1712.1923076923076,2055.5,-71.61538461538461,14.384615384615385,-29.807692307692307
1042.0,-101441.84615384616,-4026.153846153846,-1682.1538461538462,2055.0,-71.6923076923077,14.307692307692307,-29.846153846153847
1044.0,-101471.88461538461,-3996.1153846153848,-1652.1153846153845,2054.5,-71.76923076923077,14.23076923076923,-29.884615384615383
1046.0,-101501.92307692308,-3966.076923076923,-1622.076923076923,2054.0,-71.84615384615384,14.153846153846153,-29.923076923076923
1048.0,-101531.96153846153,-3936.0384615384614,-1592.0384615384614,2053.5,-71.92307692307692,14.076923076923077,-29.96153846153846
1050.0,-101531.96153846153,-3921.0192307692305,-1546.9807692307693,2053.096153846154,-72.0,13.903846153846153,-29.98076923076923
1052.0,-101441.84615384616,-3966.076923076923,-1501.923076923077,2053.3846153846152,-72.0,13.615384615384615,-29.923076923076923
1054.0,-101381.76923076923,-3996.1153846153848,-1471.8846153846155,2053.576923076923,-72.0,13.423076923076923,-29.884615384615383
1056.0,-101321.69230769231,-4026.153846153846,-1441.8461538461538,2053.769230769231,-72.0,13.23076923076923,-29.846153846153847
1058.0,-101261.61538461539,-4056.1923076923076,-1411.8076923076924,2053.9615384615386,-72.0,13.038461538461538,-29.807692307692307
1060.0,-101201.53846153847,-4086.230769230769,-1381.7692307692307,2054.153846153846,-72.0,12.846153846153847,-29.76923076923077
1062.0,-101141.46153846153,-4116.2692307692305,-1351.7307692307693,2054.346153846154,-72.0,12.653846153846153,-29.73076923076923
1064.0,-101081.38461538461,-4146.307692307692,-1321.6923076923076,2054.5384615384614,-72.0,12.461538461538462,-29.692307692307693
1066.0,-101021.30769230769,-4176.346153846154,-1291.6538461538462,2054.730769230769,-72.0,12.26923076923077,-29.653846153846153
1068.0,-100961.23076923077,-4206.384615384615,-1261.6153846153845,2054.923076923077,-72.0,12.076923076923077,-29.615384615384617
1070.0,-100901.15384615384,-4236.423076923077,-1231.576923076923,2055.1153846153848,-72.0,11.884615384615385,-29.576923076923077
1072.0,-100841.07692307692,-4266.461538461538,-1201.5384615384614,2055.3076923076924,-72.0,11.692307692307692,-29.53846153846154
1074.0,-100781.0,-4296.5,-1171.5,2055.5,-72.0,11.5,-29.5
1076.0,-100720.92307692308,-4326.538461538462,-1141.4615384615386,2055.6923076923076,-72.0,11.307692307692307,-29.46153846153846
1078.0,-100660.84615384616,-4356.576923076923,-1111.423076923077,2055.8846153846152,-72.0,11.115384615384615,-29.423076923076923
1080.0,-100600.76923076923,-4386.615384615385,-1081.3846153846152,2056.076923076923,-72.0,10.923076923076923,-29.384615384615383
1082.0,-100540.69230769231,-4416.653846153846,-1051.3461538461538,2056.269230769231,-72.0,10.73076923076923,-29.346153846153847
1084.0,-100480.61538461539,-4446.692307692308,-1021.3076923076923,2056.4615384615386,-72.0,10.538461538461538,-29.307692307692307
1086.0,-100420.53846153847,-4476.7307692307695,-991.2692307692307,2056.653846153846,-72.0,10.346153846153847,-29.26923076923077
1088.0,-100360.46153846153,-4506.7692307692305,-961.2307692307692,2056.846153846154,-72.0,10.153846153846153,-29.23076923076923
1090.0,-100300.38461538461,-4536.807692307692,-931.1923076923076,2057.0384615384614,-72.0,9.961538461538462,-29.192307692307693
1092.0,-100240.30769230769,-4566.846153846154,-901.1538461538461,2057.230769230769,-72.0,9.76923076923077,-29.153846153846153
1094.0,-100180.23076923077,-4596.884615384615,-871.1153846153845,2057.423076923077,-72.0,9.576923076923077,-29.115384615384617
1096.0,-100120.15384615384,-4626.923076923077,-841.0769230769231,2057.6153846153848,-72.0,9.384615384615383,-29.076923076923077
1098.0,-100060.07692307692,-4656.961538461538,-811.0384615384615,2057.8076923076924,-72.0,9.192307692307692,-29.03846153846154
1100.0,-100000.0,-4702.0192307692305,-765.9807692307693,2058.1153846153848,-72.0,8.98076923076923,-29.0
1102.0,-100000.0,-4747.076923076923,-720.9230769230769,2058.4615384615386,-72.0,8.923076923076923,-29.0
1104.0,-100000.0,-4777.115384615385,-690.8846153846154,2058.6923076923076,-72.0,8.884615384615385,-29.0
1106.0,-100000.0,-4807.153846153846,-660.8461538461538,2058.923076923077,-72.0,8.846153846153847,-29.0
1108.0,-100000.0,-4837.192307692308,-630.8076923076923,2059.153846153846,-72.0,8.807692307692308,-29.0
1110.0,-100000.0,-4867.2307692307695,-600.7692307692307,2059.3846153846152,-72.0,8.76923076923077,-29.0
1112.0,-100000.0,-4897.2692307692305,-570.7307692307693,2059.6153846153848,-72.0,8.73076923076923,-29.0
1114.0,-100000.0,-4927.307692307692,-540.6923076923076,2059.846153846154,-72.0,8.692307692307692,-29.0
1116.0,-100000.0,-4957.346153846154,-510.65384615384613,2060.076923076923,-72.0,8.653846153846153,-29.0
1118.0,-100000.0,-4987.384615384615,-480.6153846153846,2060.3076923076924,-72.0,8.615384615384615,-29.0
1120.0,-100000.0,-5017.423076923077,-450.57692307692304,2060.5384615384614,-72.0,8.576923076923077,-29.0
1122.0,-100000.0,-5047.461538461538,-420.53846153846155,2060.769230769231,-72.0,8.538461538461538,-29.0
1124.0,-100000.0,-5077.5,-390.5,2061.0,-72.0,8.5,-29.0
1126.0,-100000.0,-5107.538461538462,-360.46153846153845,2061.230769230769,-72.0,8.461538461538462,-29.0
1128.0,-100000.0,-5137.576923076923,-330.4230769230769,2061.4615384615386,-72.0,8.423076923076923,-29.0
1130.0,-100000.0,-5167.615384615385,-300.38461538461536,2061.6923076923076,-72.0,8.384615384615385,-29.0
1132.0,-100000.0,-5197.653846153846,-270.3461538461538,2061.923076923077,-72.0,8.346153846153847,-29.0
1134.0,-100000.0,-5227.692307692308,-240.30769230769226,2062.153846153846,-72.0,8.307692307692308,-29.0
1136.0,-100000.0,-5257.7307692307695,-210.26923076923072,2062.3846153846152,-72.0,8.26923076923077,-29.0
1138.0,-100000.0,-5287.7692307692305,-180.23076923076917,2062.6153846153848,-72.0,8.23076923076923,-29.0
1140.0,-100000.0,-5317.807692307692,-150.19230769230762,2062.846153846154,-72.0,8.192307692307692,-29.0
1142.0,-100000.0,-5347.846153846154,-120.15384615384608,2063.076923076923,-72.0,8.153846153846153,-29.0
1144.0,-100000.0,-5377.884615384615,-90.11538461538453,2063.3076923076924,-72.0,8.115384615384615,-29.0
1146.0,-100000.0,-5407.923076923077,-60.076923076923094,2063.5384615384614,-72.0,8.076923076923077,-29.0
1148.0,-100000.0,-5437.961538461538,-30.038461538461547,2063.769230769231,-72.0,8.038461538461538,-29.0
1150.0,-99984.96153846153,-5452.9807692307695,30.03846153846154,2064.0,-71.98076923076923,7.923076923076923,-28.96153846153846
1152.0,-99939.84615384616,-5407.923076923077,120.15384615384616,2064.0,-71.92307692307692,7.6923076923076925,-28.846153846153847
1154.0,-99909.76923076923,-5377.884615384615,180.23076923076923,2064.0,-71.88461538461539,7.538461538461538,-28.76923076923077
1156.0,-99879.69230769231,-5347.846153846154,240.30769230769232,2064.0,-71.84615384615384,7.384615384615385,-28.692307692307693
1158.0,-99849.61538461539,-5317.807692307692,300.3846153846154,2064.0,-71.8076923076923,7.230769230769231,-28.615384615384617
1160.0,-99819.53846153847,-5287.7692307692305,360.46153846153845,2064.0,-71.76923076923077,7.076923076923077,-28.53846153846154
1162.0,-99789.46153846153,-5257.7307692307695,420.53846153846155,2064.0,-71.73076923076923,6.923076923076923,-28.46153846153846
1164.0,-99759.38461538461,-5227.692307692308,480.61538461538464,2064.0,-71.6923076923077,6.769230769230769,-28.384615384615383
1166.0,-99729.30769230769,-5197.653846153846,540.6923076923077,2064.0,-71.65384615384616,6.615384615384615,-28.307692307692307
1168.0,-99699.23076923077,-5167.615384615385,600.7692307692308,2064.0,-71.61538461538461,6.461538461538462,-28.23076923076923
1170.0,-99669.15384615384,-5137.576923076923,660.8461538461539,2064.0,-71.57692307692308,6.3076923076923075,-28.153846153846153
1172.0,-99639.07692307692,-5107.538461538462,720.9230769230769,2064.0,-71.53846153846153,6.153846153846153,-28.076923076923077
1174.0,-99609.0,-5077.5,781.0,2064.0,-71.5,6.0,-28.0
1176.0,-99578.92307692308,-5047.461538461538,841.0769230769231,2064.0,-71.46153846153847,5.846153846153846,-27.923076923076923
1178.0,-99548.84615384616,-5017.423076923077,901.1538461538462,2064.0,-71.42307692307692,5.692307692307692,-27.846153846153847
1180.0,-99518.76923076923,-4987.384615384615,961.2307692307693,2064.0,-71.38461538461539,5.538461538461538,-27.76923076923077
1182.0,-99488.69230769231,-4957.346153846154,1021.3076923076924,2064.0,-71.34615384615384,5.384615384615385,-27.692307692307693
1184.0,-99458.61538461539,-4927.307692307692,1081.3846153846155,2064.0,-71.3076923076923,5.230769230769231,-27.615384615384617
1186.0,-99428.53846153847,-4897.2692307692305,1141.4615384615386,2064.0,-71.26923076923077,5.076923076923077,-27.53846153846154
1188.0,-99398.46153846153,-4867.2307692307695,1201.5384615384617,2064.0,-71.23076923076923,4.923076923076923,-27.46153846153846
1190.0,-99368.38461538461,-4837.192307692308,1261.6153846153848,2064.0,-71.1923076923077,4.769230769230769,-27.384615384615383
1192.0,-99338.30769230769,-4807.153846153846,1321.6923076923078,2064.0,-71.15384615384616,4.615384615384615,-27.307692307692307
1194.0,-99308.23076923077,-4777.115384615385,1381.769230769231,2064.0,-71.11538461538461,4.461538461538462,-27.23076923076923
1196.0,-99278.15384615384,-4747.076923076923,1441.8461538461538,2064.0,-71.07692307692308,4.3076923076923075,-27.153846153846153
1198.0,-99248.07692307692,-4717.038461538462,1501.923076923077,2064.0,-71.03846153846153,4.153846153846153,-27.076923076923077
1200.0,-99218.0,-4687.0,1546.9807692307693,2063.7884615384614,-70.92307692307692,3.9423076923076925,-26.98076923076923
1202.0,-99218.0,-4687.0,1501.923076923077,2063.153846153846,-70.6923076923077,3.769230769230769,-26.923076923076923
1204.0,-99218.0,-4687.0,1471.8846153846155,2062.730769230769,-70.53846153846153,3.6538461538461537,-26.884615384615383
1206.0,-99218.0,-4687.0,1441.8461538461538,2062.3076923076924,-70.38461538461539,3.5384615384615383,-26.846153846153847
1208.0,-99218.0,-4687.0,1411.8076923076924,2061.8846153846152,-70.23076923076923,3.423076923076923,-26.807692307692307
1210.0,-99218.0,-4687.0,1381.7692307692307,2061.4615384615386,-70.07692307692308,3.3076923076923075,-26.76923076923077
1212.0,-99218.0,-4687.0,1351.7307692307693,2061.0384615384614,-69.92307692307692,3.1923076923076925,-26.73076923076923
1214.0,-99218.0,-4687.0,1321.6923076923076,2060.6153846153848,-69.76923076923077,3.0769230769230766,-26.692307692307693
1216.0,-99218.0,-4687.0,1291.6538461538462,2060.1923076923076,-69.61538461538461,2.9615384615384617,-26.653846153846153
1218.0,-99218.0,-4687.0,1261.6153846153845,2059.769230769231,-69.46153846153847,2.846153846153846,-26.615384615384617
1220.0,-99218.0,-4687.0,1231.576923076923,2059.346153846154,-69.3076923076923,2.730769230769231,-26.576923076923077
1222.0,-99218.0,-4687.0,1201.5384615384614,2058.923076923077,-69.15384615384616,2.6153846153846154,-26.53846153846154
1224.0,-99218.0,-4687.0,1171.5,2058.5,-69.0,2.5,-26.5
1226.0,-99218.0,-4687.0,1141.4615384615386,2058.076923076923,-68.84615384615384,2.3846153846153846,-26.46153846153846
1228.0,-99218.0,-4687.0,1111.423076923077,2057.653846153846,-68.6923076923077,2.269230769230769,-26.423076923076923
1230.0,-99218.0,-4687.0,1081.3846153846152,2057.230769230769,-68.53846153846153,2.1538461538461537,-26.384615384615383
1232.0,-99218.0,-4687.0,1051.3461538461538,2056.8076923076924,-68.38461538461539,2.0384615384615383,-26.346153846153847
1234.0,-99218.0,-4687.0,1021.3076923076923,2056.3846153846152,-68.23076923076923,1.923076923076923,-26.307692307692307
1236.0,-99218.0,-4687.0,991.2692307692307,2055.9615384615386,-68.07692307692308,1.8076923076923075,-26.26923076923077
1238.0,-99218.0,-4687.0,961.2307692307692,2055.5384615384614,-67.92307692307692,1.692307692307692,-26.23076923076923
1240.0,-99218.0,-4687.0,931.1923076923076,2055.1153846153848,-67.76923076923077,1.5769230769230766,-26.192307692307693
1242.0,-99218.0,-4687.0,901.1538461538461,2054.6923076923076,-67.61538461538461,1.4615384615384612,-26.153846153846153
1244.0,-99218.0,-4687.0,871.1153846153845,2054.269230769231,-67.46153846153847,1.3461538461538458,-26.115384615384617
1246.0,-99218.0,-4687.0,841.0769230769231,2053.846153846154,-67.3076923076923,1.2307692307692308,-26.076923076923077
1248.0,-99218.0,-4687.0,811.0384615384615,2053.423076923077,-67.15384615384616,1.1153846153846154,-26.03846153846154
1250.0,-99187.96153846153,-4687.0,811.0384615384615,2052.9807692307695,-66.92307692307692,1.0384615384615383,-26.0
1252.0,-99097.84615384616,-4687.0,901.1538461538462,2052.923076923077,-66.6923076923077,1.1538461538461537,-26.0
1254.0,-99037.76923076923,-4687.0,961.2307692307693,2052.8846153846152,-66.53846153846153,1.2307692307692308,-26.0
1256.0,-98977.69230769231,-4687.0,1021.3076923076924,2052.846153846154,-66.38461538461539,1.3076923076923077,-26.0
1258.0,-98917.61538461539,-4687.0,1081.3846153846155,2052.8076923076924,-66.23076923076923,1.3846153846153846,-26.0
1260.0,-98857.53846153847,-4687.0,1141.4615384615386,2052.769230769231,-66.07692307692308,1.4615384615384617,-26.0
1262.0,-98797.46153846153,-4687.0,1201.5384615384614,2052.730769230769,-65.92307692307692,1.5384615384615385,-26.0
1264.0,-98737.38461538461,-4687.0,1261.6153846153848,2052.6923076923076,-65.76923076923077,1.6153846153846154,-26.0
1266.0,-98677.30769230769,-4687.0,1321.6923076923076,2052.653846153846,-65.61538461538461,1.6923076923076923,-26.0
1268.0,-98617.23076923077,-4687.0,1381.769230769231,2052.6153846153848,-65.46153846153847,1.7692307692307692,-26.0
1270.0,-98557.15384615384,-4687.0,1441.8461538461538,2052.576923076923,-65.3076923076923,1.8461538461538463,-26.0
1272.0,-98497.07692307692,-4687.0,1501.923076923077,2052.5384615384614,-65.15384615384616,1.9230769230769231,-26.0
1274.0,-98437.0,-4687.0,1562.0,2052.5,-65.0,2.0,-26.0
1276.0,-98376.92307692308,-4687.0,1622.076923076923,2052.4615384615386,-64.84615384615384,2.076923076923077,-26.0
1278.0,-98316.84615384616,-4687.0,1682.1538461538462,2052.423076923077,-64.6923076923077,2.153846153846154,-26.0
1280.0,-98256.76923076923,-4687.0,1742.2307692307693,2052.3846153846152,-64.53846153846153,2.230769230769231,-26.0
1282.0,-98196.69230769231,-4687.0,1802.3076923076924,2052.346153846154,-64.38461538461539,2.3076923076923075,-26.0
1284.0,-98136.61538461539,-4687.0,1862.3846153846155,2052.3076923076924,-64.23076923076923,2.3846153846153846,-26.0
1286.0,-98076.53846153847,-4687.0,1922.4615384615386,2052.269230769231,-64.07692307692308,2.4615384615384617,-26.0
1288.0,-98016.46153846153,-4687.0,1982.5384615384617,2052.230769230769,-63.92307692307692,2.5384615384615383,-26.0
1290.0,-97956.38461538461,-4687.0,2042.6153846153848,2052.1923076923076,-63.76923076923077,2.6153846153846154,-26.0
1292.0,-97896.30769230769,-4687.0,2102.6923076923076,2052.153846153846,-63.61538461538461,2.6923076923076925,-26.0
1294.0,-97836.23076923077,-4687.0,2162.769230769231,2052.1153846153848,-63.46153846153846,2.769230769230769,-26.0
1296.0,-97776.15384615384,-4687.0,2222.846153846154,2052.076923076923,-63.30769230769231,2.8461538461538463,-26.0
1298.0,-97716.07692307692,-4687.0,2282.923076923077,2052.0384615384614,-63.15384615384615,2.9230769230769234,-26.0
1300.0,-97625.94230769231,-4702.0192307692305,2373.0576923076924,2052.096153846154,-62.88461538461539,3.0,-25.96153846153846
1302.0,-97535.76923076923,-4747.076923076923,2463.230769230769,2052.3846153846152,-62.53846153846154,3.0,-25.846153846153847
1304.0,-97475.65384615384,-4777.115384615385,2523.346153846154,2052.576923076923,-62.30769230769231,3.0,-25.76923076923077
1306.0,-97415.53846153847,-4807.153846153846,2583.4615384615386,2052.769230769231,-62.07692307692308,3.0,-25.692307692307693
1308.0,-97355.42307692308,-4837.192307692308,2643.576923076923,2052.9615384615386,-61.84615384615385,3.0,-25.615384615384617
1310.0,-97295.30769230769,-4867.2307692307695,2703.6923076923076,2053.153846153846,-61.61538461538461,3.0,-25.53846153846154
1312.0,-97235.19230769231,-4897.2692307692305,2763.8076923076924,2053.346153846154,-61.38461538461539,3.0,-25.46153846153846
1314.0,-97175.07692307692,-4927.307692307692,2823.923076923077,2053.5384615384614,-61.15384615384615,3.0,-25.384615384615383
1316.0,-97114.96153846153,-4957.346153846154,2884.0384615384614,2053.730769230769,-60.92307692307692,3.0,-25.307692307692307
1318.0,-97054.84615384616,-4987.384615384615,2944.153846153846,2053.923076923077,-60.69230769230769,3.0,-25.23076923076923
1320.0,-96994.73076923077,-5017.423076923077,3004.2692307692305,2054.1153846153848,-60.46153846153846,3.0,-25.153846153846153
1322.0,-96934.61538461539,-5047.461538461538,3064.3846153846152,2054.3076923076924,-60.23076923076923,3.0,-25.076923076923077
1324.0,-96874.5,-5077.5,3124.5,2054.5,-60.0,3.0,-25.0
1326.0,-96814.38461538461,-5107.538461538462,3184.6153846153848,2054.6923076923076,-59.76923076923077,3.0,-24.923076923076923
1328.0,-96754.26923076923,-5137.576923076923,3244.730769230769,2054.8846153846152,-59.53846153846154,3.0,-24.846153846153847
1330.0,-96694.15384615384,-5167.615384615385,3304.846153846154,2055.076923076923,-59.30769230769231,3.0,-24.76923076923077
1332.0,-96634.03846153847,-5197.653846153846,3364.9615384615386,2055.269230769231,-59.07692307692308,3.0,-24.692307692307693
1334.0,-96573.92307692308,-5227.692307692308,3425.076923076923,2055.4615384615386,-58.84615384615385,3.0,-24.615384615384617
1336.0,-96513.80769230769,-5257.7307692307695,3485.1923076923076,2055.653846153846,-58.61538461538461,3.0,-24.53846153846154
1338.0,-96453.69230769231,-5287.7692307692305,3545.3076923076924,2055.846153846154,-58.38461538461539,3.0,-24.46153846153846
1340.0,-96393.57692307692,-5317.807692307692,3605.423076923077,2056.0384615384614,-58.15384615384615,3.0,-24.384615384615383
1342.0,-96333.46153846153,-5347.846153846154,3665.5384615384614,2056.230769230769,-57.92307692307692,3.0,-24.307692307692307
1344.0,-96273.34615384616,-5377.884615384615,3725.653846153846,2056.423076923077,-57.69230769230769,3.0,-24.23076923076923
1346.0,-96213.23076923077,-5407.923076923077,3785.7692307692305,2056.6153846153848,-57.46153846153846,3.0,-24.153846153846153
1348.0,-96153.11538461539,-5437.961538461538,3845.8846153846152,2056.8076923076924,-57.23076923076923,3.0,-24.076923076923077
1350.0,-96077.98076923077,-5468.0,3890.9807692307695,2056.9807692307695,-56.84615384615385,3.0769230769230766,-24.0
1352.0,-96032.92307692308,-5468.0,3845.923076923077,2056.923076923077,-56.38461538461539,3.3076923076923075,-24.0
1354.0,-96002.88461538461,-5468.0,3815.8846153846152,2056.8846153846152,-56.07692307692308,3.4615384615384617,-24.0
1356.0,-95972.84615384616,-5468.0,3785.846153846154,2056.846153846154,-55.76923076923077,3.6153846153846154,-24.0
1358.0,-95942.80769230769,-5468.0,3755.8076923076924,2056.8076923076924,-55.46153846153846,3.769230769230769,-24.0
1360.0,-95912.76923076923,-5468.0,3725.769230769231,2056.769230769231,-55.15384615384615,3.9230769230769234,-24.0
1362.0,-95882.73076923077,-5468.0,3695.730769230769,2056.730769230769,-54.84615384615385,4.076923076923077,-24.0
1364.0,-95852.69230769231,-5468.0,3665.6923076923076,2056.6923076923076,-54.53846153846154,4.230769230769231,-24.0
1366.0,-95822.65384615384,-5468.0,3635.653846153846,2056.653846153846,-54.23076923076923,4.384615384615385,-24.0
1368.0,-95792.61538461539,-5468.0,3605.6153846153848,2056.6153846153848,-53.92307692307692,4.538461538461538,-24.0
1370.0,-95762.57692307692,-5468.0,3575.576923076923,2056.576923076923,-53.61538461538461,4.6923076923076925,-24.0
1372.0,-95732.53846153847,-5468.0,3545.5384615384614,2056.5384615384614,-53.30769230769231,4.846153846153847,-24.0
1374.0,-95702.5,-5468.0,3515.5,2056.5,-53.0,5.0,-24.0
1376.0,-95672.46153846153,-5468.0,3485.4615384615386,2056.4615384615386,-52.69230769230769,5.153846153846154,-24.0
1378.0,-95642.42307692308,-5468.0,3455.423076923077,2056.423076923077,-52.38461538461539,5.307692307692308,-24.0
1380.0,-95612.38461538461,-5468.0,3425.3846153846152,2056.3846153846152,-52.07692307692308,5.461538461538462,-24.0
1382.0,-95582.34615384616,-5468.0,3395.346153846154,2056.346153846154,-51.76923076923077,5.615384615384615,-24.0
1384.0,-95552.30769230769,-5468.0,3365.3076923076924,2056.3076923076924,-51.46153846153846,5.769230769230769,-24.0
1386.0,-95522.26923076923,-5468.0,3335.2692307692305,2056.269230769231,-51.15384615384615,5.923076923076923,-24.0
1388.0,-95492.23076923077,-5468.0,3305.230769230769,2056.230769230769,-50.84615384615385,6.076923076923077,-24.0
1390.0,-95462.19230769231,-5468.0,3275.1923076923076,2056.1923076923076,-50.53846153846154,6.230769230769231,-24.0
1392.0,-95432.15384615384,-5468.0,3245.153846153846,2056.153846153846,-50.230769230769226,6.384615384615385,-24.0
1394.0,-95402.11538461539,-5468.0,3215.1153846153848,2056.1153846153848,-49.92307692307692,6.538461538461538,-24.0
1396.0,-95372.07692307692,-5468.0,3185.076923076923,2056.076923076923,-49.61538461538461,6.6923076923076925,-24.0
1398.0,-95342.03846153847,-5468.0,3155.0384615384614,2056.0384615384614,-49.30769230769231,6.846153846153847,-24.0
1400.0,-95312.0,-5483.038461538461,3109.9615384615386,2055.9423076923076,-48.84615384615385,7.076923076923077,-23.96153846153846
1402.0,-95312.0,-5528.153846153846,3064.846153846154,2055.769230769231,-48.38461538461539,7.3076923076923075,-23.846153846153847
1404.0,-95312.0,-5558.2307692307695,3034.769230769231,2055.653846153846,-48.07692307692308,7.461538461538462,-23.76923076923077
1406.0,-95312.0,-5588.307692307692,3004.6923076923076,2055.5384615384614,-47.76923076923077,7.615384615384615,-23.692307692307693
1408.0,-95312.0,-5618.384615384615,2974.6153846153848,2055.423076923077,-47.46153846153846,7.769230769230769,-23.615384615384617
1410.0,-95312.0,-5648.461538461538,2944.5384615384614,2055.3076923076924,-47.15384615384615,7.923076923076923,-23.53846153846154
1412.0,-95312.0,-5678.538461538462,2914.4615384615386,2055.1923076923076,-46.84615384615385,8.076923076923077,-23.46153846153846
1414.0,-95312.0,-5708.615384615385,2884.3846153846152,2055.076923076923,-46.53846153846154,8.23076923076923,-23.384615384615383
1416.0,-95312.0,-5738.692307692308,2854.3076923076924,2054.9615384615386,-46.23076923076923,8.384615384615385,-23.307692307692307
1418.0,-95312.0,-5768.7692307692305,2824.230769230769,2054.846153846154,-45.92307692307692,8.538461538461538,-23.23076923076923
1420.0,-95312.0,-5798.846153846154,2794.153846153846,2054.730769230769,-45.61538461538461,8.692307692307693,-23.153846153846153
1422.0,-95312.0,-5828.923076923077,2764.076923076923,2054.6153846153848,-45.30769230769231,8.846153846153847,-23.076923076923077
1424.0,-95312.0,-5859.0,2734.0,2054.5,-45.0,9.0,-23.0
1426.0,-95312.0,-5889.076923076923,2703.923076923077,2054.3846153846152,-44.69230769230769,9.153846153846153,-22.923076923076923
1428.0,-95312.0,-5919.153846153846,2673.846153846154,2054.269230769231,-44.38461538461539,9.307692307692308,-22.846153846153847
1430.0,-95312.0,-5949.2307692307695,2643.769230769231,2054.153846153846,-44.07692307692308,9.461538461538462,-22.76923076923077
1432.0,-95312.0,-5979.307692307692,2613.6923076923076,2054.0384615384614,-43.76923076923077,9.615384615384615,-22.692307692307693
1434.0,-95312.0,-6009.384615384615,2583.6153846153848,2053.923076923077,-43.46153846153846,9.76923076923077,-22.615384615384617
1436.0,-95312.0,-6039.461538461538,2553.5384615384614,2053.8076923076924,-43.15384615384615,9.923076923076923,-22.53846153846154
1438.0,-95312.0,-6069.538461538462,2523.4615384615386,2053.6923076923076,-42.84615384615385,10.076923076923077,-22.46153846153846
1440.0,-95312.0,-6099.615384615385,2493.3846153846152,2053.576923076923,-42.53846153846154,10.23076923076923,-22.384615384615383
1442.0,-95312.0,-6129.692307692308,2463.3076923076924,2053.4615384615386,-42.230769230769226,10.384615384615385,-22.307692307692307
1444.0,-95312.0,-6159.7692307692305,2433.2307692307695,2053.346153846154,-41.92307692307692,10.538461538461538,-22.23076923076923
1446.0,-95312.0,-6189.846153846154,2403.153846153846,2053.230769230769,-41.61538461538461,10.692307692307693,-22.153846153846153
1448.0,-95312.0,-6219.923076923077,2373.076923076923,2053.1153846153848,-41.30769230769231,10.846153846153847,-22.076923076923077
1450.0,-95327.01923076923,-6250.0,2327.9807692307695,2053.25,-40.86538461538461,11.076923076923077,-22.0
1452.0,-95372.07692307692,-6250.0,2282.923076923077,2054.0,-40.46153846153846,11.307692307692308,-22.0
1454.0,-95402.11538461539,-6250.0,2252.8846153846152,2054.5,-40.19230769230769,11.461538461538462,-22.0
1456.0,-95432.15384615384,-6250.0,2222.846153846154,2055.0,-39.92307692307692,11.615384615384615,-22.0
1458.0,-95462.19230769231,-6250.0,2192.8076923076924,2055.5,-39.65384615384615,11.76923076923077,-22.0
1460.0,-95492.23076923077,-6250.0,2162.769230769231,2056.0,-39.38461538461539,11.923076923076923,-22.0
1462.0,-95522.26923076923,-6250.0,2132.730769230769,2056.5,-39.11538461538461,12.076923076923077,-22.0
1464.0,-95552.30769230769,-6250.0,2102.6923076923076,2057.0,-38.84615384615385,12.23076923076923,-22.0
1466.0,-95582.34615384616,-6250.0,2072.653846153846,2057.5,-38.57692307692308,12.384615384615385,-22.0
1468.0,-95612.38461538461,-6250.0,2042.6153846153845,2058.0,-38.30769230769231,12.538461538461538,-22.0
1470.0,-95642.42307692308,-6250.0,2012.576923076923,2058.5,-38.03846153846154,12.692307692307693,-22.0
1472.0,-95672.46153846153,-6250.0,1982.5384615384614,2059.0,-37.76923076923077,12.846153846153847,-22.0
1474.0,-95702.5,-6250.0,1952.5,2059.5,-37.5,13.0,-22.0
1476.0,-95732.53846153847,-6250.0,1922.4615384615386,2060.0,-37.23076923076923,13.153846153846153,-22.0
1478.0,-95762.57692307692,-6250.0,1892.423076923077,2060.5,-36.96153846153846,13.307692307692308,-22.0
1480.0,-95792.61538461539,-6250.0,1862.3846153846152,2061.0,-36.69230769230769,13.461538461538462,-22.0
1482.0,-95822.65384615384,-6250.0,1832.3461538461538,2061.5,-36.42307692307692,13.615384615384615,-22.0
1484.0,-95852.69230769231,-6250.0,1802.3076923076924,2062.0,-36.15384615384615,13.76923076923077,-22.0
1486.0,-95882.73076923077,-6250.0,1772.2692307692307,2062.5,-35.88461538461539,13.923076923076923,-22.0
1488.0,-95912.76923076923,-6250.0,1742.230769230769,2063.0,-35.61538461538461,14.076923076923077,-22.0
1490.0,-95942.80769230769,-6250.0,1712.1923076923076,2063.5,-35.34615384615385,14.23076923076923,-22.0
1492.0,-95972.84615384616,-6250.0,1682.1538461538462,2064.0,-35.07692307692308,14.384615384615385,-22.0
1494.0,-96002.88461538461,-6250.0,1652.1153846153845,2064.5,-34.80769230769231,14.538461538461538,-22.0
1496.0,-96032.92307692308,-6250.0,1622.076923076923,2065.0,-34.53846153846154,14.692307692307693,-22.0
1498.0,-96062.96153846153,-6250.0,1592.0384615384614,2065.5,-34.26923076923077,14.846153846153847,-22.0
1500.0,-96093.0,-6265.0192307692305,1562.0,2065.9615384615386,-33.86538461538461,15.096153846153847,-21.96153846153846
1502.0,-96093.0,-6310.076923076923,1562.0,2065.846153846154,-33.46153846153846,15.384615384615385,-21.846153846153847
1504.0,-96093.0,-6340.115384615385,1562.0,2065.769230769231,-33.19230769230769,15.576923076923077,-21.76923076923077
1506.0,-96093.0,-6370.153846153846,1562.0,2065.6923076923076,-32.92307692307692,15.76923076923077,-21.692307692307693
1508.0,-96093.0,-6400.192307692308,1562.0,2065.6153846153848,-32.65384615384615,15.961538461538462,-21.615384615384617
1510.0,-96093.0,-6430.2307692307695,1562.0,2065.5384615384614,-32.38461538461539,16.153846153846153,-21.53846153846154
1512.0,-96093.0,-6460.2692307692305,1562.0,2065.4615384615386,-32.11538461538461,16.346153846153847,-21.46153846153846
1514.0,-96093.0,-6490.307692307692,1562.0,2065.3846153846152,-31.846153846153847,16.53846153846154,-21.384615384615383
1516.0,-96093.0,-6520.346153846154,1562.0,2065.3076923076924,-31.576923076923077,16.73076923076923,-21.307692307692307
1518.0,-96093.0,-6550.384615384615,1562.0,2065.230769230769,-31.307692307692307,16.923076923076923,-21.23076923076923
1520.0,-96093.0,-6580.423076923077,1562.0,2065.153846153846,-31.03846153846154,17.115384615384617,-21.153846153846153
1522.0,-96093.0,-6610.461538461538,1562.0,2065.076923076923,-30.76923076923077,17.307692307692307,-21.076923076923077
1524.0,-96093.0,-6640.5,1562.0,2065.0,-30.5,17.5,-21.0
1526.0,-96093.0,-6670.538461538462,1562.0,2064.923076923077,-30.23076923076923,17.692307692307693,-20.923076923076923
1528.0,-96093.0,-6700.576923076923,1562.0,2064.846153846154,-29.96153846153846,17.884615384615383,-20.846153846153847
1530.0,-96093.0,-6730.615384615385,1562.0,2064.769230769231,-29.692307692307693,18.076923076923077,-20.76923076923077
1532.0,-96093.0,-6760.653846153846,1562.0,2064.6923076923076,-29.423076923076923,18.26923076923077,-20.692307692307693
1534.0,-96093.0,-6790.692307692308,1562.0,2064.6153846153848,-29.153846153846153,18.46153846153846,-20.615384615384617
1536.0,-96093.0,-6820.7307692307695,1562.0,2064.5384615384614,-28.884615384615387,18.653846153846153,-20.53846153846154
1538.0,-96093.0,-6850.7692307692305,1562.0,2064.4615384615386,-28.615384615384617,18.846153846153847,-20.46153846153846
1540.0,-96093.0,-6880.807692307692,1562.0,2064.3846153846152,-28.346153846153847,19.03846153846154,-20.384615384615383
1542.0,-96093.0,-6910.846153846154,1562.0,2064.3076923076924,-28.076923076923077,19.23076923076923,-20.307692307692307
1544.0,-96093.0,-6940.884615384615,1562.0,2064.230769230769,-27.807692307692307,19.423076923076923,-20.23076923076923
1546.0,-96093.0,-6970.923076923077,1562.0,2064.153846153846,-27.53846153846154,19.615384615384617,-20.153846153846153
1548.0,-96093.0,-7000.961538461538,1562.0,2064.076923076923,-27.26923076923077,19.807692307692307,-20.076923076923077
1550.0,-96108.03846153847,-7046.0192307692305,1546.9807692307693,2063.8076923076924,-26.884615384615387,20.076923076923077,-19.98076923076923
1552.0,-96153.15384615384,-7091.076923076923,1501.923076923077,2063.230769230769,-26.53846153846154,20.307692307692307,-19.923076923076923
1554.0,-96183.23076923077,-7121.115384615385,1471.8846153846155,2062.846153846154,-26.307692307692307,20.46153846153846,-19.884615384615383
1556.0,-96213.30769230769,-7151.153846153846,1441.8461538461538,2062.4615384615386,-26.076923076923077,20.615384615384617,-19.846153846153847
1558.0,-96243.38461538461,-7181.192307692308,1411.8076923076924,2062.076923076923,-25.846153846153847,20.76923076923077,-19.807692307692307
1560.0,-96273.46153846153,-7211.2307692307695,1381.7692307692307,2061.6923076923076,-25.615384615384617,20.923076923076923,-19.76923076923077
1562.0,-96303.53846153847,-7241.2692307692305,1351.7307692307693,2061.3076923076924,-25.384615384615383,21.076923076923077,-19.73076923076923
1564.0,-96333.61538461539,-7271.307692307692,1321.6923076923076,2060.923076923077,-25.153846153846153,21.23076923076923,-19.692307692307693
1566.0,-96363.69230769231,-7301.346153846154,1291.6538461538462,2060.5384615384614,-24.923076923076923,21.384615384615383,-19.653846153846153
1568.0,-96393.76923076923,-7331.384615384615,1261.6153846153845,2060.153846153846,-24.692307692307693,21.53846153846154,-19.615384615384617
1570.0,-96423.84615384616,-7361.423076923077,1231.576923076923,2059.769230769231,-24.46153846153846,21.692307692307693,-19.576923076923077
1572.0,-96453.92307692308,-7391.461538461538,1201.5384615384614,2059.3846153846152,-24.23076923076923,21.846153846153847,-19.53846153846154
1574.0,-96484.0,-7421.5,1171.5,2059.0,-24.0,22.0,-19.5
1576.0,-96514.07692307692,-7451.538461538462,1141.4615384615386,2058.6153846153848,-23.76923076923077,22.153846153846153,-19.46153846153846
1578.0,-96544.15384615384,-7481.576923076923,1111.423076923077,2058.230769230769,-23.53846153846154,22.307692307692307,-19.423076923076923
1580.0,-96574.23076923077,-7511.615384615385,1081.3846153846152,2057.846153846154,-23.307692307692307,22.46153846153846,-19.384615384615383
1582.0,-96604.30769230769,-7541.653846153846,1051.3461538461538,2057.4615384615386,-23.076923076923077,22.615384615384617,-19.346153846153847
1584.0,-96634.38461538461,-7571.692307692308,1021.3076923076923,2057.076923076923,-22.846153846153847,22.76923076923077,-19.307692307692307
1586.0,-96664.46153846153,-7601.7307692307695,991.2692307692307,2056.6923076923076,-22.615384615384613,22.923076923076923,-19.26923076923077
1588.0,-96694.53846153847,-7631.7692307692305,961.2307692307692,2056.3076923076924,-22.384615384615383,23.076923076923077,-19.23076923076923
1590.0,-96724.61538461539,-7661.807692307692,931.1923076923076,2055.923076923077,-22.153846153846153,23.23076923076923,-19.192307692307693
1592.0,-96754.69230769231,-7691.846153846154,901.1538461538461,2055.5384615384614,-21.923076923076923,23.384615384615387,-19.153846153846153
1594.0,-96784.76923076923,-7721.884615384615,871.1153846153845,2055.153846153846,-21.692307692307693,23.53846153846154,-19.115384615384617
1596.0,-96814.84615384616,-7751.923076923077,841.0769230769231,2054.769230769231,-21.46153846153846,23.692307692307693,-19.076923076923077
1598.0,-96844.92307692308,-7781.961538461538,811.0384615384615,2054.3846153846152,-21.23076923076923,23.846153846153847,-19.03846153846154
1600.0,-96890.01923076923,-7812.0,781.0,2054.1923076923076,-20.923076923076923,24.115384615384613,-19.0
1602.0,-96935.07692307692,-7812.0,781.0,2054.769230769231,-20.692307692307693,24.46153846153846,-19.0
1604.0,-96965.11538461539,-7812.0,781.0,2055.153846153846,-20.53846153846154,24.692307692307693,-19.0
1606.0,-96995.15384615384,-7812.0,781.0,2055.5384615384614,-20.384615384615383,24.923076923076923,-19.0
1608.0,-97025.19230769231,-7812.0,781.0,2055.923076923077,-20.23076923076923,25.153846153846153,-19.0
1610.0,-97055.23076923077,-7812.0,781.0,2056.3076923076924,-20.076923076923077,25.384615384615383,-19.0
1612.0,-97085.26923076923,-7812.0,781.0,2056.6923076923076,-19.923076923076923,25.615384615384617,-19.0
1614.0,-97115.30769230769,-7812.0,781.0,2057.076923076923,-19.76923076923077,25.846153846153847,-19.0
1616.0,-97145.34615384616,-7812.0,781.0,2057.4615384615386,-19.615384615384617,26.076923076923077,-19.0
1618.0,-97175.38461538461,-7812.0,781.0,2057.846153846154,-19.46153846153846,26.307692307692307,-19.0
1620.0,-97205.42307692308,-7812.0,781.0,2058.230769230769,-19.307692307692307,26.53846153846154,-19.0
1622.0,-97235.46153846153,-7812.0,781.0,2058.6153846153848,-19.153846153846153,26.76923076923077,-19.0
1624.0,-97265.5,-7812.0,781.0,2059.0,-19.0,27.0,-19.0
1626.0,-97295.53846153847,-7812.0,781.0,2059.3846153846152,-18.846153846153847,27.23076923076923,-19.0
1628.0,-97325.57692307692,-7812.0,781.0,2059.769230769231,-18.692307692307693,27.46153846153846,-19.0
1630.0,-97355.61538461539,-7812.0,781.0,2060.153846153846,-18.53846153846154,27.692307692307693,-19.0
1632.0,-97385.65384615384,-7812.0,781.0,2060.5384615384614,-18.384615384615383,27.923076923076923,-19.0
1634.0,-97415.69230769231,-7812.0,781.0,2060.923076923077,-18.23076923076923,28.153846153846153,-19.0
1636.0,-97445.73076923077,-7812.0,781.0,2061.3076923076924,-18.076923076923077,28.384615384615387,-19.0
1638.0,-97475.76923076923,-7812.0,781.0,2061.6923076923076,-17.923076923076923,28.615384615384617,-19.0
1640.0,-97505.80769230769,-7812.0,781.0,2062.076923076923,-17.76923076923077,28.846153846153847,-19.0
1642.0,-97535.84615384616,-7812.0,781.0,2062.4615384615386,-17.615384615384613,29.076923076923077,-19.0
1644.0,-97565.88461538461,-7812.0,781.0,2062.846153846154,-17.46153846153846,29.307692307692307,-19.0
1646.0,-97595.92307692308,-7812.0,781.0,2063.230769230769,-17.307692307692307,29.53846153846154,-19.0
1648.0,-97625.96153846153,-7812.0,781.0,2063.6153846153848,-17.153846153846153,29.76923076923077,-19.0
1650.0,-97656.0,-7827.0192307692305,765.9807692307693,2063.7115384615386,-16.96153846153846,30.115384615384613,-18.96153846153846
1652.0,-97656.0,-7872.076923076923,720.9230769230769,2062.846153846154,-16.846153846153847,30.46153846153846,-18.846153846153847
1654.0,-97656.0,-7902.115384615385,690.8846153846154,2062.269230769231,-16.76923076923077,30.692307692307693,-18.76923076923077
1656.0,-97656.0,-7932.153846153846,660.8461538461538,2061.6923076923076,-16.692307692307693,30.923076923076923,-18.692307692307693
1658.0,-97656.0,-7962.192307692308,630.8076923076923,2061.1153846153848,-16.615384615384617,31.153846153846153,-18.615384615384617
1660.0,-97656.0,-7992.2307692307695,600.7692307692307,2060.5384615384614,-16.53846153846154,31.384615384615383,-18.53846153846154
1662.0,-97656.0,-8022.2692307692305,570.7307692307693,2059.9615384615386,-16.46153846153846,31.615384615384617,-18.46153846153846
1664.0,-97656.0,-8052.307692307692,540.6923076923076,2059.3846153846152,-16.384615384615383,31.846153846153847,-18.384615384615383
1666.0,-97656.0,-8082.346153846154,510.65384615384613,2058.8076923076924,-16.307692307692307,32.07692307692308,-18.307692307692307
1668.0,-97656.0,-8112.384615384615,480.6153846153846,2058.230769230769,-16.23076923076923,32.30769230769231,-18.23076923076923
1670.0,-97656.0,-8142.423076923077,450.57692307692304,2057.653846153846,-16.153846153846153,32.53846153846154,-18.153846153846153
1672.0,-97656.0,-8172.461538461538,420.53846153846155,2057.076923076923,-16.076923076923077,32.76923076923077,-18.076923076923077
1674.0,-97656.0,-8202.5,390.5,2056.5,-16.0,33.0,-18.0
1676.0,-97656.0,-8232.538461538461,360.46153846153845,2055.923076923077,-15.923076923076923,33.23076923076923,-17.923076923076923
1678.0,-97656.0,-8262.576923076924,330.4230769230769,2055.346153846154,-15.846153846153847,33.46153846153846,-17.846153846153847
1680.0,-97656.0,-8292.615384615385,300.38461538461536,2054.769230769231,-15.76923076923077,33.69230769230769,-17.76923076923077
1682.0,-97656.0,-8322.653846153846,270.3461538461538,2054.1923076923076,-15.692307692307692,33.92307692307692,-17.692307692307693
1684.0,-97656.0,-8352.692307692309,240.30769230769226,2053.6153846153848,-15.615384615384615,34.15384615384615,-17.615384615384617
1686.0,-97656.0,-8382.73076923077,210.26923076923072,2053.0384615384614,-15.538461538461538,34.38461538461539,-17.53846153846154
1688.0,-97656.0,-8412.76923076923,180.23076923076917,2052.4615384615386,-15.461538461538462,34.61538461538461,-17.46153846153846
1690.0,-97656.0,-8442.807692307691,150.19230769230762,2051.8846153846152,-15.384615384615385,34.84615384615385,-17.384615384615383
1692.0,-97656.0,-8472.846153846154,120.15384615384608,2051.3076923076924,-15.307692307692307,35.07692307692308,-17.307692307692307
1694.0,-97656.0,-8502.884615384615,90.11538461538453,2050.730769230769,-15.23076923076923,35.30769230769231,-17.23076923076923
1696.0,-97656.0,-8532.923076923076,60.076923076923094,2050.153846153846,-15.153846153846153,35.53846153846154,-17.153846153846153
1698.0,-97656.0,-8562.961538461539,30.038461538461547,2049.576923076923,-15.076923076923077,35.76923076923077,-17.076923076923077
1700.0,-97686.03846153847,-8577.98076923077,-15.01923076923077,2049.1923076923076,-14.961538461538462,36.09615384615385,-17.0
1702.0,-97776.15384615384,-8532.923076923076,-60.07692307692308,2049.769230769231,-14.846153846153847,36.38461538461539,-17.0
1704.0,-97836.23076923077,-8502.884615384615,-90.11538461538461,2050.153846153846,-14.76923076923077,36.57692307692308,-17.0
1706.0,-97896.30769230769,-8472.846153846154,-120.15384615384616,2050.5384615384614,-14.692307692307692,36.76923076923077,-17.0
1708.0,-97956.38461538461,-8442.807692307691,-150.1923076923077,2050.923076923077,-14.615384615384615,36.96153846153846,-17.0
1710.0,-98016.46153846153,-8412.76923076923,-180.23076923076923,2051.3076923076924,-14.538461538461538,37.15384615384615,-17.0
1712.0,-98076.53846153847,-8382.73076923077,-210.26923076923077,2051.6923076923076,-14.461538461538462,37.34615384615385,-17.0
1714.0,-98136.61538461539,-8352.692307692309,-240.30769230769232,2052.076923076923,-14.384615384615385,37.53846153846154,-17.0
1716.0,-98196.69230769231,-8322.653846153846,-270.34615384615387,2052.4615384615386,-14.307692307692308,37.73076923076923,-17.0
1718.0,-98256.76923076923,-8292.615384615385,-300.3846153846154,2052.846153846154,-14.23076923076923,37.92307692307692,-17.0
1720.0,-98316.84615384616,-8262.576923076924,-330.42307692307696,2053.230769230769,-14.153846153846153,38.11538461538461,-17.0
1722.0,-98376.92307692308,-8232.538461538461,-360.46153846153845,2053.6153846153848,-14.076923076923077,38.30769230769231,-17.0
1724.0,-98437.0,-8202.5,-390.5,2054.0,-14.0,38.5,-17.0
1726.0,-98497.07692307692,-8172.461538461538,-420.53846153846155,2054.3846153846152,-13.923076923076923,38.69230769230769,-17.0
1728.0,-98557.15384615384,-8142.423076923077,-450.5769230769231,2054.769230769231,-13.846153846153847,38.88461538461539,-17.0
1730.0,-98617.23076923077,-8112.384615384615,-480.61538461538464,2055.153846153846,-13.76923076923077,39.07692307692308,-17.0
1732.0,-98677.30769230769,-8082.346153846154,-510.6538461538462,2055.5384615384614,-13.692307692307692,39.26923076923077,-17.0
1734.0,-98737.38461538461,-8052.307692307692,-540.6923076923077,2055.923076923077,-13.615384615384615,39.46153846153846,-17.0
1736.0,-98797.46153846153,-8022.2692307692305,-570.7307692307693,2056.3076923076924,-13.538461538461538,39.65384615384615,-17.0
1738.0,-98857.53846153847,-7992.2307692307695,-600.7692307692308,2056.6923076923076,-13.461538461538462,39.84615384615385,-17.0
1740.0,-98917.61538461539,-7962.192307692308,-630.8076923076924,2057.076923076923,-13.384615384615385,40.03846153846154,-17.0
1742.0,-98977.69230769231,-7932.153846153846,-660.8461538461539,2057.4615384615386,-13.307692307692307,40.23076923076923,-17.0
1744.0,-99037.76923076923,-7902.115384615385,-690.8846153846155,2057.846153846154,-13.23076923076923,40.42307692307692,-17.0
1746.0,-99097.84615384616,-7872.076923076923,-720.9230769230769,2058.230769230769,-13.153846153846153,40.61538461538461,-17.0
1748.0,-99157.92307692308,-7842.038461538462,-750.9615384615385,2058.6153846153848,-13.076923076923077,40.80769230769231,-17.0
1750.0,-99218.0,-7827.0192307692305,-781.0,2058.8653846153848,-13.01923076923077,41.11538461538461,-17.0
1752.0,-99218.0,-7872.076923076923,-781.0,2058.4615384615386,-13.076923076923077,41.46153846153846,-17.0
1754.0,-99218.0,-7902.115384615385,-781.0,2058.1923076923076,-13.115384615384615,41.69230769230769,-17.0
1756.0,-99218.0,-7932.153846153846,-781.0,2057.923076923077,-13.153846153846153,41.92307692307692,-17.0
1758.0,-99218.0,-7962.192307692308,-781.0,2057.653846153846,-13.192307692307692,42.15384615384615,-17.0
1760.0,-99218.0,-7992.2307692307695,-781.0,2057.3846153846152,-13.23076923076923,42.38461538461539,-17.0
1762.0,-99218.0,-8022.2692307692305,-781.0,2057.1153846153848,-13.26923076923077,42.61538461538461,-17.0
1764.0,-99218.0,-8052.307692307692,-781.0,2056.846153846154,-13.307692307692308,42.84615384615385,-17.0
1766.0,-99218.0,-8082.346153846154,-781.0,2056.576923076923,-13.346153846153847,43.07692307692308,-17.0
1768.0,-99218.0,-8112.384615384615,-781.0,2056.3076923076924,-13.384615384615385,43.30769230769231,-17.0
1770.0,-99218.0,-8142.423076923077,-781.0,2056.0384615384614,-13.423076923076923,43.53846153846154,-17.0
1772.0,-99218.0,-8172.461538461538,-781.0,2055.769230769231,-13.461538461538462,43.76923076923077,-17.0
1774.0,-99218.0,-8202.5,-781.0,2055.5,-13.5,44.0,-17.0
1776.0,-99218.0,-8232.538461538461,-781.0,2055.230769230769,-13.538461538461538,44.23076923076923,-17.0
1778.0,-99218.0,-8262.576923076924,-781.0,2054.9615384615386,-13.576923076923077,44.46153846153846,-17.0
1780.0,-99218.0,-8292.615384615385,-781.0,2054.6923076923076,-13.615384615384615,44.69230769230769,-17.0
1782.0,-99218.0,-8322.653846153846,-781.0,2054.423076923077,-13.653846153846153,44.92307692307692,-17.0
1784.0,-99218.0,-8352.692307692309,-781.0,2054.153846153846,-13.692307692307692,45.15384615384615,-17.0
1786.0,-99218.0,-8382.73076923077,-781.0,2053.8846153846152,-13.73076923076923,45.38461538461539,-17.0
1788.0,-99218.0,-8412.76923076923,-781.0,2053.6153846153848,-13.76923076923077,45.61538461538461,-17.0
1790.0,-99218.0,-8442.807692307691,-781.0,2053.346153846154,-13.807692307692308,45.84615384615385,-17.0
1792.0,-99218.0,-8472.846153846154,-781.0,2053.076923076923,-13.846153846153847,46.07692307692308,-17.0
1794.0,-99218.0,-8502.884615384615,-781.0,2052.8076923076924,-13.884615384615385,46.30769230769231,-17.0
1796.0,-99218.0,-8532.923076923076,-781.0,2052.5384615384614,-13.923076923076923,46.53846153846154,-17.0
1798.0,-99218.0,-8562.961538461539,-781.0,2052.269230769231,-13.961538461538462,46.76923076923077,-17.0
1800.0,-99233.03846153847,-8593.0,-811.0384615384615,2052.173076923077,-14.057692307692307,47.07692307692308,-16.98076923076923
1802.0,-99278.15384615384,-8593.0,-901.1538461538462,2052.6923076923076,-14.23076923076923,47.30769230769231,-16.923076923076923
1804.0,-99308.23076923077,-8593.0,-961.2307692307693,2053.0384615384614,-14.346153846153847,47.46153846153846,-16.884615384615383
1806.0,-99338.30769230769,-8593.0,-1021.3076923076924,2053.3846153846152,-14.461538461538462,47.61538461538461,-16.846153846153847
1808.0,-99368.38461538461,-8593.0,-1081.3846153846155,2053.730769230769,-14.576923076923077,47.76923076923077,-16.807692307692307
1810.0,-99398.46153846153,-8593.0,-1141.4615384615386,2054.076923076923,-14.692307692307692,47.92307692307692,-16.76923076923077
1812.0,-99428.53846153847,-8593.0,-1201.5384615384614,2054.423076923077,-14.807692307692308,48.07692307692308,-16.73076923076923
1814.0,-99458.61538461539,-8593.0,-1261.6153846153848,2054.769230769231,-14.923076923076923,48.23076923076923,-16.692307692307693
1816.0,-99488.69230769231,-8593.0,-1321.6923076923076,2055.1153846153848,-15.038461538461538,48.38461538461539,-16.653846153846153
1818.0,-99518.76923076923,-8593.0,-1381.769230769231,2055.4615384615386,-15.153846153846153,48.53846153846154,-16.615384615384617
1820.0,-99548.84615384616,-8593.0,-1441.8461538461538,2055.8076923076924,-15.26923076923077,48.69230769230769,-16.576923076923077
1822.0,-99578.92307692308,-8593.0,-1501.923076923077,2056.153846153846,-15.384615384615385,48.84615384615385,-16.53846153846154
1824.0,-99609.0,-8593.0,-1562.0,2056.5,-15.5,49.0,-16.5
1826.0,-99639.07692307692,-8593.0,-1622.076923076923,2056.846153846154,-15.615384615384615,49.15384615384615,-16.46153846153846
1828.0,-99669.15384615384,-8593.0,-1682.1538461538462,2057.1923076923076,-15.73076923076923,49.30769230769231,-16.423076923076923
1830.0,-99699.23076923077,-8593.0,-1742.2307692307693,2057.5384615384614,-15.846153846153847,49.46153846153846,-16.384615384615383
1832.0,-99729.30769230769,-8593.0,-1802.3076923076924,2057.8846153846152,-15.961538461538462,49.61538461538461,-16.346153846153847
1834.0,-99759.38461538461,-8593.0,-1862.3846153846155,2058.230769230769,-16.076923076923077,49.76923076923077,-16.307692307692307
1836.0,-99789.46153846153,-8593.0,-1922.4615384615386,2058.576923076923,-16.192307692307693,49.92307692307692,-16.26923076923077
1838.0,-99819.53846153847,-8593.0,-1982.5384615384617,2058.923076923077,-16.307692307692307,50.07692307692308,-16.23076923076923
1840.0,-99849.61538461539,-8593.0,-2042.6153846153848,2059.269230769231,-16.423076923076923,50.23076923076923,-16.192307692307693
1842.0,-99879.69230769231,-8593.0,-2102.6923076923076,2059.6153846153848,-16.53846153846154,50.38461538461539,-16.153846153846153
1844.0,-99909.76923076923,-8593.0,-2162.769230769231,2059.9615384615386,-16.653846153846153,50.53846153846154,-16.115384615384617
1846.0,-99939.84615384616,-8593.0,-2222.846153846154,2060.3076923076924,-16.76923076923077,50.69230769230769,-16.076923076923077
1848.0,-99969.92307692308,-8593.0,-2282.923076923077,2060.653846153846,-16.884615384615383,50.84615384615385,-16.03846153846154
1850.0,-100030.03846153847,-8608.038461538461,-2358.0384615384614,2060.9615384615386,-17.057692307692307,51.09615384615385,-16.0
1852.0,-100120.15384615384,-8653.153846153846,-2403.153846153846,2060.846153846154,-17.23076923076923,51.38461538461539,-16.0
1854.0,-100180.23076923077,-8683.23076923077,-2433.230769230769,2060.769230769231,-17.346153846153847,51.57692307692308,-16.0
1856.0,-100240.30769230769,-8713.307692307691,-2463.3076923076924,2060.6923076923076,-17.46153846153846,51.76923076923077,-16.0
1858.0,-100300.38461538461,-8743.384615384615,-2493.3846153846152,2060.6153846153848,-17.576923076923077,51.96153846153846,-16.0
1860.0,-100360.46153846153,-8773.461538461539,-2523.4615384615386,2060.5384615384614,-17.692307692307693,52.15384615384615,-16.0
1862.0,-100420.53846153847,-8803.538461538461,-2553.5384615384614,2060.4615384615386,-17.807692307692307,52.34615384615385,-16.0
1864.0,-100480.61538461539,-8833.615384615385,-2583.6153846153848,2060.3846153846152,-17.923076923076923,52.53846153846154,-16.0
1866.0,-100540.69230769231,-8863.692307692309,-2613.6923076923076,2060.3076923076924,-18.03846153846154,52.73076923076923,-16.0
1868.0,-100600.76923076923,-8893.76923076923,-2643.769230769231,2060.230769230769,-18.153846153846153,52.92307692307692,-16.0
1870.0,-100660.84615384616,-8923.846153846154,-2673.846153846154,2060.153846153846,-18.26923076923077,53.11538461538461,-16.0
1872.0,-100720.92307692308,-8953.923076923076,-2703.923076923077,2060.076923076923,-18.384615384615383,53.30769230769231,-16.0
1874.0,-100781.0,-8984.0,-2734.0,2060.0,-18.5,53.5,-16.0
1876.0,-100841.07692307692,-9014.076923076924,-2764.076923076923,2059.923076923077,-18.615384615384617,53.69230769230769,-16.0
1878.0,-100901.15384615384,-9044.153846153846,-2794.153846153846,2059.846153846154,-18.73076923076923,53.88461538461539,-16.0
1880.0,-100961.23076923077,-9074.23076923077,-2824.230769230769,2059.769230769231,-18.846153846153847,54.07692307692308,-16.0
1882.0,-101021.30769230769,-9104.307692307691,-2854.3076923076924,2059.6923076923076,-18.96153846153846,54.26923076923077,-16.0
1884.0,-101081.38461538461,-9134.384615384615,-2884.3846153846152,2059.6153846153848,-19.076923076923077,54.46153846153846,-16.0
1886.0,-101141.46153846153,-9164.461538461539,-2914.4615384615386,2059.5384615384614,-19.192307692307693,54.65384615384615,-16.0
1888.0,-101201.53846153847,-9194.538461538461,-2944.5384615384614,2059.4615384615386,-19.307692307692307,54.84615384615385,-16.0
1890.0,-101261.61538461539,-9224.615384615385,-2974.6153846153848,2059.3846153846152,-19.423076923076923,55.03846153846154,-16.0
1892.0,-101321.69230769231,-9254.692307692309,-3004.6923076923076,2059.3076923076924,-19.53846153846154,55.23076923076923,-16.0
1894.0,-101381.76923076923,-9284.76923076923,-3034.7692307692305,2059.230769230769,-19.653846153846153,55.42307692307692,-16.0
1896.0,-101441.84615384616,-9314.846153846154,-3064.846153846154,2059.153846153846,-19.76923076923077,55.61538461538461,-16.0
1898.0,-101501.92307692308,-9344.923076923076,-3094.923076923077,2059.076923076923,-19.884615384615383,55.80769230769231,-16.0
1900.0,-101562.0,-9359.961538461539,-3155.0384615384614,2059.0384615384614,-20.096153846153847,56.05769230769231,-16.01923076923077
1902.0,-101562.0,-9314.846153846154,-3245.153846153846,2059.153846153846,-20.384615384615383,56.23076923076923,-16.076923076923077
1904.0,-101562.0,-9284.76923076923,-3305.230769230769,2059.230769230769,-20.576923076923077,56.34615384615385,-16.115384615384617
1906.0,-101562.0,-9254.692307692309,-3365.3076923076924,2059.3076923076924,-20.76923076923077,56.46153846153846,-16.153846153846153
1908.0,-101562.0,-9224.615384615385,-3425.3846153846152,2059.3846153846152,-20.96153846153846,56.57692307692308,-16.192307692307693
1910.0,-101562.0,-9194.538461538461,-3485.4615384615386,2059.4615384615386,-21.153846153846153,56.69230769230769,-16.23076923076923
1912.0,-101562.0,-9164.461538461539,-3545.5384615384614,2059.5384615384614,-21.346153846153847,56.80769230769231,-16.26923076923077
1914.0,-101562.0,-9134.384615384615,-3605.6153846153848,2059.6153846153848,-21.53846153846154,56.92307692307692,-16.307692307692307
1916.0,-101562.0,-9104.307692307691,-3665.6923076923076,2059.6923076923076,-21.73076923076923,57.03846153846154,-16.346153846153847
1918.0,-101562.0,-9074.23076923077,-3725.769230769231,2059.769230769231,-21.923076923076923,57.15384615384615,-16.384615384615383
1920.0,-101562.0,-9044.153846153846,-3785.846153846154,2059.846153846154,-22.115384615384617,57.26923076923077,-16.423076923076923
1922.0,-101562.0,-9014.076923076924,-3845.923076923077,2059.923076923077,-22.307692307692307,57.38461538461539,-16.46153846153846
1924.0,-101562.0,-8984.0,-3906.0,2060.0,-22.5,57.5,-16.5
1926.0,-101562.0,-8953.923076923076,-3966.076923076923,2060.076923076923,-22.692307692307693,57.61538461538461,-16.53846153846154
1928.0,-101562.0,-8923.846153846154,-4026.153846153846,2060.153846153846,-22.884615384615383,57.73076923076923,-16.576923076923077
1930.0,-101562.0,-8893.76923076923,-4086.2307692307695,2060.230769230769,-23.076923076923077,57.84615384615385,-16.615384615384617
1932.0,-101562.0,-8863.692307692309,-4146.307692307692,2060.3076923076924,-23.26923076923077,57.96153846153846,-16.653846153846153
1934.0,-101562.0,-8833.615384615385,-4206.384615384615,2060.3846153846152,-23.46153846153846,58.07692307692308,-16.692307692307693
1936.0,-101562.0,-8803.538461538461,-4266.461538461539,2060.4615384615386,-23.653846153846153,58.19230769230769,-16.73076923076923
1938.0,-101562.0,-8773.461538461539,-4326.538461538462,2060.5384615384614,-23.846153846153847,58.30769230769231,-16.76923076923077
1940.0,-101562.0,-8743.384615384615,-4386.615384615385,2060.6153846153848,-24.03846153846154,58.42307692307692,-16.807692307692307
1942.0,-101562.0,-8713.307692307691,-4446.692307692308,2060.6923076923076,-24.23076923076923,58.53846153846154,-16.846153846153847
1944.0,-101562.0,-8683.23076923077,-4506.7692307692305,2060.769230769231,-24.423076923076923,58.65384615384615,-16.884615384615383
1946.0,-101562.0,-8653.153846153846,-4566.846153846154,2060.846153846154,-24.615384615384617,58.76923076923077,-16.923076923076923
1948.0,-101562.0,-8623.076923076924,-4626.923076923077,2060.923076923077,-24.807692307692307,58.88461538461539,-16.96153846153846
1950.0,-101592.05769230769,-8577.98076923077,-4687.0,2061.0,-25.134615384615387,58.980769230769226,-17.01923076923077
1952.0,-101682.23076923077,-8532.923076923076,-4687.0,2061.0,-25.53846153846154,58.92307692307692,-17.076923076923077
1954.0,-101742.34615384616,-8502.884615384615,-4687.0,2061.0,-25.807692307692307,58.88461538461539,-17.115384615384617
1956.0,-101802.46153846153,-8472.846153846154,-4687.0,2061.0,-26.076923076923077,58.84615384615385,-17.153846153846153
1958.0,-101862.57692307692,-8442.807692307691,-4687.0,2061.0,-26.346153846153847,58.80769230769231,-17.192307692307693
1960.0,-101922.69230769231,-8412.76923076923,-4687.0,2061.0,-26.615384615384617,58.76923076923077,-17.23076923076923
1962.0,-101982.80769230769,-8382.73076923077,-4687.0,2061.0,-26.884615384615383,58.73076923076923,-17.26923076923077
1964.0,-102042.92307692308,-8352.692307692309,-4687.0,2061.0,-27.153846153846153,58.69230769230769,-17.307692307692307
1966.0,-102103.03846153847,-8322.653846153846,-4687.0,2061.0,-27.423076923076923,58.65384615384615,-17.346153846153847
1968.0,-102163.15384615384,-8292.615384615385,-4687.0,2061.0,-27.692307692307693,58.61538461538461,-17.384615384615383
1970.0,-102223.26923076923,-8262.576923076924,-4687.0,2061.0,-27.96153846153846,58.57692307692308,-17.423076923076923
1972.0,-102283.38461538461,-8232.538461538461,-4687.0,2061.0,-28.23076923076923,58.53846153846154,-17.46153846153846
1974.0,-102343.5,-8202.5,-4687.0,2061.0,-28.5,58.5,-17.5
1976.0,-102403.61538461539,-8172.461538461538,-4687.0,2061.0,-28.76923076923077,58.46153846153846,-17.53846153846154
1978.0,-102463.73076923077,-8142.423076923077,-4687.0,2061.0,-29.03846153846154,58.42307692307692,-17.576923076923077
1980.0,-102523.84615384616,-8112.384615384615,-4687.0,2061.0,-29.307692307692307,58.38461538461539,-17.615384615384617
1982.0,-102583.96153846153,-8082.346153846154,-4687.0,2061.0,-29.576923076923077,58.34615384615385,-17.653846153846153
1984.0,-102644.07692307692,-8052.307692307692,-4687.0,2061.0,-29.846153846153847,58.30769230769231,-17.692307692307693
1986.0,-102704.19230769231,-8022.2692307692305,-4687.0,2061.0,-30.115384615384613,58.26923076923077,-17.73076923076923
1988.0,-102764.30769230769,-7992.2307692307695,-4687.0,2061.0,-30.384615384615383,58.23076923076923,-17.76923076923077
1990.0,-102824.42307692308,-7962.192307692308,-4687.0,2061.0,-30.653846153846153,58.19230769230769,-17.807692307692307
1992.0,-102884.53846153847,-7932.153846153846,-4687.0,2061.0,-30.923076923076923,58.15384615384615,-17.846153846153847
1994.0,-102944.65384615384,-7902.115384615385,-4687.0,2061.0,-31.192307692307693,58.11538461538461,-17.884615384615383
1996.0,-103004.76923076923,-7872.076923076923,-4687.0,2061.0,-31.46153846153846,58.07692307692308,-17.923076923076923
1998.0,-103064.88461538461,-7842.038461538462,-4687.0,2061.0,-31.73076923076923,58.03846153846154,-17.96153846153846
2000.0,-103140.01923076923,-7812.0,-4702.0192307692305,2060.846153846154,-32.15384615384615,57.980769230769226,-18.01923076923077
2002.0,-103185.07692307692,-7812.0,-4747.076923076923,2060.3846153846152,-32.61538461538461,57.92307692307692,-18.076923076923077
2004.0,-103215.11538461539,-7812.0,-4777.115384615385,2060.076923076923,-32.92307692307692,57.88461538461539,-18.115384615384617
2006.0,-103245.15384615384,-7812.0,-4807.153846153846,2059.769230769231,-33.23076923076923,57.84615384615385,-18.153846153846153
2008.0,-103275.19230769231,-7812.0,-4837.192307692308,2059.4615384615386,-33.53846153846154,57.80769230769231,-18.192307692307693
2010.0,-103305.23076923077,-7812.0,-4867.2307692307695,2059.153846153846,-33.84615384615385,57.76923076923077,-18.23076923076923
2012.0,-103335.26923076923,-7812.0,-4897.2692307692305,2058.846153846154,-34.15384615384615,57.73076923076923,-18.26923076923077
2014.0,-103365.30769230769,-7812.0,-4927.307692307692,2058.5384615384614,-34.46153846153846,57.69230769230769,-18.307692307692307
2016.0,-103395.34615384616,-7812.0,-4957.346153846154,2058.230769230769,-34.76923076923077,57.65384615384615,-18.346153846153847
2018.0,-103425.38461538461,-7812.0,-4987.384615384615,2057.923076923077,-35.07692307692308,57.61538461538461,-18.384615384615383
2020.0,-103455.42307692308,-7812.0,-5017.423076923077,2057.6153846153848,-35.38461538461539,57.57692307692308,-18.423076923076923
2022.0,-103485.46153846153,-7812.0,-5047.461538461538,2057.3076923076924,-35.69230769230769,57.53846153846154,-18.46153846153846
2024.0,-103515.5,-7812.0,-5077.5,2057.0,-36.0,57.5,-18.5
2026.0,-103545.53846153847,-7812.0,-5107.538461538462,2056.6923076923076,-36.30769230769231,57.46153846153846,-18.53846153846154
2028.0,-103575.57692307692,-7812.0,-5137.576923076923,2056.3846153846152,-36.61538461538461,57.42307692307692,-18.576923076923077
2030.0,-103605.61538461539,-7812.0,-5167.615384615385,2056.076923076923,-36.92307692307692,57.38461538461539,-18.615384615384617
2032.0,-103635.65384615384,-7812.0,-5197.653846153846,2055.769230769231,-37.23076923076923,57.34615384615385,-18.653846153846153
2034.0,-103665.69230769231,-7812.0,-5227.692307692308,2055.4615384615386,-37.53846153846154,57.30769230769231,-18.692307692307693
2036.0,-103695.73076923077,-7812.0,-5257.7307692307695,2055.153846153846,-37.84615384615385,57.26923076923077,-18.73076923076923
2038.0,-103725.76923076923,-7812.0,-5287.7692307692305,2054.846153846154,-38.15384615384615,57.23076923076923,-18.76923076923077
2040.0,-103755.80769230769,-7812.0,-5317.807692307692,2054.5384615384614,-38.46153846153846,57.19230769230769,-18.807692307692307
2042.0,-103785.84615384616,-7812.0,-5347.846153846154,2054.230769230769,-38.769230769230774,57.15384615384615,-18.846153846153847
2044.0,-103815.88461538461,-7812.0,-5377.884615384615,2053.923076923077,-39.07692307692308,57.11538461538461,-18.884615384615383
2046.0,-103845.92307692308,-7812.0,-5407.923076923077,2053.6153846153848,-39.38461538461539,57.07692307692308,-18.923076923076923
2048.0,-103875.96153846153,-7812.0,-5437.961538461538,2053.3076923076924,-39.69230769230769,57.03846153846154,-18.96153846153846
2050.0,-103921.01923076923,-7812.0,-5468.0,2053.173076923077,-40.230769230769226,56.96153846153846,-19.03846153846154
2052.0,-103966.07692307692,-7812.0,-5468.0,2053.6923076923076,-40.92307692307692,56.84615384615385,-19.153846153846153
2054.0,-103996.11538461539,-7812.0,-5468.0,2054.0384615384614,-41.38461538461539,56.76923076923077,-19.23076923076923
2056.0,-104026.15384615384,-7812.0,-5468.0,2054.3846153846152,-41.84615384615385,56.69230769230769,-19.307692307692307
2058.0,-104056.19230769231,-7812.0,-5468.0,2054.730769230769,-42.30769230769231,56.61538461538461,-19.384615384615383
2060.0,-104086.23076923077,-7812.0,-5468.0,2055.076923076923,-42.76923076923077,56.53846153846154,-19.46153846153846
2062.0,-104116.26923076923,-7812.0,-5468.0,2055.423076923077,-43.23076923076923,56.46153846153846,-19.53846153846154
2064.0,-104146.30769230769,-7812.0,-5468.0,2055.769230769231,-43.69230769230769,56.38461538461539,-19.615384615384617
2066.0,-104176.34615384616,-7812.0,-5468.0,2056.1153846153848,-44.15384615384615,56.30769230769231,-19.692307692307693
2068.0,-104206.38461538461,-7812.0,-5468.0,2056.4615384615386,-44.61538461538461,56.23076923076923,-19.76923076923077
2070.0,-104236.42307692308,-7812.0,-5468.0,2056.8076923076924,-45.07692307692308,56.15384615384615,-19.846153846153847
2072.0,-104266.46153846153,-7812.0,-5468.0,2057.153846153846,-45.53846153846154,56.07692307692308,-19.923076923076923
2074.0,-104296.5,-7812.0,-5468.0,2057.5,-46.0,56.0,-20.0
2076.0,-104326.53846153847,-7812.0,-5468.0,2057.846153846154,-46.46153846153846,55.92307692307692,-20.076923076923077
2078.0,-104356.57692307692,-7812.0,-5468.0,2058.1923076923076,-46.92307692307692,55.84615384615385,-20.153846153846153
2080.0,-104386.61538461539,-7812.0,-5468.0,2058.5384615384614,-47.38461538461539,55.76923076923077,-20.23076923076923
2082.0,-104416.65384615384,-7812.0,-5468.0,2058.8846153846152,-47.84615384615385,55.69230769230769,-20.307692307692307
2084.0,-104446.69230769231,-7812.0,-5468.0,2059.230769230769,-48.30769230769231,55.61538461538461,-20.384615384615383
2086.0,-104476.73076923077,-7812.0,-5468.0,2059.576923076923,-48.769230769230774,55.53846153846154,-20.46153846153846
2088.0,-104506.76923076923,-7812.0,-5468.0,2059.923076923077,-49.23076923076923,55.46153846153846,-20.53846153846154
2090.0,-104536.80769230769,-7812.0,-5468.0,2060.269230769231,-49.69230769230769,55.38461538461539,-20.615384615384617
2092.0,-104566.84615384616,-7812.0,-5468.0,2060.6153846153848,-50.15384615384615,55.30769230769231,-20.692307692307693
2094.0,-104596.88461538461,-7812.0,-5468.0,2060.9615384615386,-50.61538461538461,55.23076923076923,-20.76923076923077
