timestamp,accX,accY,accZ,pressure,gyroX,gyroY,gyroZ
0.0,-100811.03846153847,-7631.7307692307695,-5422.942307692308,2058.673076923077,-13.73076923076923,35.84615384615385,-23.096153846153847
2.0,-100901.15384615384,-7090.923076923077,-5287.7692307692305,2057.6923076923076,-15.923076923076923,35.38461538461539,-23.384615384615383
4.0,-100961.23076923077,-6730.384615384615,-5197.653846153846,2057.0384615384614,-17.384615384615383,35.07692307692308,-23.576923076923077
6.0,-101021.30769230769,-6369.846153846154,-5107.538461538462,2056.3846153846152,-18.846153846153847,34.76923076923077,-23.76923076923077
8.0,-101081.38461538461,-6009.307692307692,-5017.423076923077,2055.730769230769,-20.307692307692307,34.46153846153846,-23.96153846153846
10.0,-101141.46153846153,-5648.7692307692305,-4927.307692307692,2055.076923076923,-21.769230769230766,34.15384615384615,-24.153846153846153
12.0,-101201.53846153847,-5288.2307692307695,-4837.192307692308,2054.423076923077,-23.23076923076923,33.84615384615385,-24.346153846153847
14.0,-101261.61538461539,-4927.692307692308,-4747.076923076923,2053.769230769231,-24.692307692307693,33.53846153846154,-24.53846153846154
16.0,-101321.69230769231,-4567.153846153846,-4656.961538461538,2053.1153846153848,-26.153846153846153,33.23076923076923,-24.73076923076923
18.0,-101381.76923076923,-4206.615384615385,-4566.846153846154,2052.4615384615386,-27.615384615384613,32.92307692307692,-24.923076923076923
20.0,-101441.84615384616,-3846.076923076923,-4476.7307692307695,2051.8076923076924,-29.076923076923077,32.61538461538461,-25.115384615384617
22.0,-101501.92307692308,-3485.538461538461,-4386.615384615385,2051.153846153846,-30.538461538461537,32.30769230769231,-25.307692307692307
24.0,-101562.0,-3125.0,-4296.5,2050.5,-32.0,32.0,-25.5
26.0,-101622.07692307692,-2764.461538461538,-4206.384615384615,2049.846153846154,-33.46153846153846,31.692307692307693,-25.692307692307693
28.0,-101682.15384615384,-2403.923076923077,-4116.2692307692305,2049.1923076923076,-34.92307692307692,31.384615384615383,-25.884615384615383
30.0,-101742.23076923077,-2043.3846153846152,-4026.153846153846,2048.5384615384614,-36.38461538461539,31.076923076923077,-26.076923076923077
32.0,-101802.30769230769,-1682.8461538461534,-3936.038461538462,2047.8846153846155,-37.84615384615384,30.76923076923077,-26.26923076923077
34.0,-101862.38461538461,-1322.3076923076924,-3845.923076923077,2047.2307692307693,-39.30769230769231,30.46153846153846,-26.46153846153846
36.0,-101922.46153846153,-961.7692307692305,-3755.8076923076924,2046.576923076923,-40.76923076923077,30.153846153846153,-26.653846153846153
38.0,-101982.53846153847,-601.2307692307695,-3665.6923076923076,2045.923076923077,-42.230769230769226,29.846153846153847,-26.846153846153847
40.0,-102042.61538461539,-240.69230769230762,-3575.576923076923,2045.2692307692307,-43.69230769230769,29.53846153846154,-27.03846153846154
42.0,-102102.69230769231,119.84615384615427,-3485.4615384615386,2044.6153846153845,-45.15384615384615,29.23076923076923,-27.23076923076923
44.0,-102162.76923076923,480.38461538461524,-3395.346153846154,2043.9615384615386,-46.61538461538461,28.923076923076923,-27.423076923076923
46.0,-102222.84615384616,840.923076923078,-3305.2307692307695,2043.3076923076924,-48.07692307692307,28.615384615384613,-27.615384615384617
48.0,-102282.92307692308,1201.461538461539,-3215.1153846153848,2042.6538461538462,-49.53846153846153,28.307692307692307,-27.807692307692307
50.0,-102327.98076923077,1531.9615384615386,-3079.923076923077,2042.0,-51.05769230769231,27.98076923076923,-28.0
52.0,-102282.92307692308,1441.8461538461538,-2944.6923076923076,2042.0,-51.23076923076923,27.923076923076923,-28.0
54.0,-102252.88461538461,1381.7692307692307,-2854.5384615384614,2042.0,-51.34615384615385,27.884615384615383,-28.0
56.0,-102222.84615384616,1321.6923076923076,-2764.3846153846152,2042.0,-51.46153846153846,27.846153846153847,-28.0
58.0,-102192.80769230769,1261.6153846153845,-2674.230769230769,2042.0,-51.57692307692308,27.807692307692307,-28.0
60.0,-102162.76923076923,1201.5384615384614,-2584.076923076923,2042.0,-51.69230769230769,27.76923076923077,-28.0
62.0,-102132.73076923077,1141.4615384615386,-2493.923076923077,2042.0,-51.80769230769231,27.73076923076923,-28.0
64.0,-102102.69230769231,1081.3846153846152,-2403.7692307692305,2042.0,-51.92307692307692,27.692307692307693,-28.0
66.0,-102072.65384615384,1021.3076923076923,-2313.6153846153848,2042.0,-52.03846153846154,27.653846153846153,-28.0
68.0,-102042.61538461539,961.2307692307692,-2223.461538461538,2042.0,-52.15384615384615,27.615384615384617,-28.0
70.0,-102012.57692307692,901.1538461538461,-2133.3076923076924,2042.0,-52.26923076923077,27.576923076923077,-28.0
72.0,-101982.53846153847,841.0769230769231,-2043.1538461538462,2042.0,-52.38461538461539,27.53846153846154,-28.0
74.0,-101952.5,781.0,-1953.0,2042.0,-52.5,27.5,-28.0
76.0,-101922.46153846153,720.9230769230769,-1862.8461538461538,2042.0,-52.61538461538461,27.46153846153846,-28.0
78.0,-101892.42307692308,660.8461538461538,-1772.6923076923076,2042.0,-52.73076923076923,27.423076923076923,-28.0
80.0,-101862.38461538461,600.7692307692307,-1682.5384615384614,2042.0,-52.84615384615385,27.384615384615383,-28.0
82.0,-101832.34615384616,540.6923076923076,-1592.3846153846152,2042.0,-52.96153846153846,27.346153846153847,-28.0
84.0,-101802.30769230769,480.6153846153845,-1502.230769230769,2042.0,-53.07692307692308,27.307692307692307,-28.0
86.0,-101772.26923076923,420.53846153846143,-1412.0769230769229,2042.0,-53.19230769230769,27.26923076923077,-28.0
88.0,-101742.23076923077,360.46153846153834,-1321.9230769230767,2042.0,-53.30769230769231,27.23076923076923,-28.0
90.0,-101712.19230769231,300.38461538461524,-1231.7692307692307,2042.0,-53.42307692307692,27.192307692307693,-28.0
92.0,-101682.15384615384,240.30769230769215,-1141.6153846153845,2042.0,-53.53846153846154,27.153846153846153,-28.0
94.0,-101652.11538461539,180.23076923076906,-1051.461538461538,2042.0,-53.65384615384615,27.115384615384617,-28.0
96.0,-101622.07692307692,120.15384615384619,-961.3076923076924,2042.0,-53.76923076923077,27.076923076923077,-28.0
98.0,-101592.03846153847,60.076923076923094,-871.1538461538462,2042.0,-53.88461538461539,27.03846153846154,-28.0
100.0,-101546.98076923077,0.0,-765.9807692307693,2042.0576923076924,-54.05769230769231,26.96153846153846,-27.96153846153846
102.0,-101501.92307692308,0.0,-720.9230769230769,2042.2307692307693,-54.23076923076923,26.846153846153847,-27.846153846153847
104.0,-101471.88461538461,0.0,-690.8846153846154,2042.3461538461538,-54.34615384615385,26.76923076923077,-27.76923076923077
106.0,-101441.84615384616,0.0,-660.8461538461538,2042.4615384615386,-54.46153846153846,26.692307692307693,-27.692307692307693
108.0,-101411.80769230769,0.0,-630.8076923076923,2042.576923076923,-54.57692307692308,26.615384615384617,-27.615384615384617
110.0,-101381.76923076923,0.0,-600.7692307692307,2042.6923076923076,-54.69230769230769,26.53846153846154,-27.53846153846154
112.0,-101351.73076923077,0.0,-570.7307692307693,2042.8076923076924,-54.80769230769231,26.46153846153846,-27.46153846153846
114.0,-101321.69230769231,0.0,-540.6923076923076,2042.923076923077,-54.92307692307692,26.384615384615383,-27.384615384615383
116.0,-101291.65384615384,0.0,-510.65384615384613,2043.0384615384614,-55.03846153846154,26.307692307692307,-27.307692307692307
118.0,-101261.61538461539,0.0,-480.6153846153846,2043.1538461538462,-55.15384615384615,26.23076923076923,-27.23076923076923
120.0,-101231.57692307692,0.0,-450.57692307692304,2043.2692307692307,-55.26923076923077,26.153846153846153,-27.153846153846153
122.0,-101201.53846153847,0.0,-420.53846153846155,2043.3846153846155,-55.38461538461539,26.076923076923077,-27.076923076923077
124.0,-101171.5,0.0,-390.5,2043.5,-55.5,26.0,-27.0
126.0,-101141.46153846153,0.0,-360.46153846153845,2043.6153846153845,-55.61538461538461,25.923076923076923,-26.923076923076923
128.0,-101111.42307692308,0.0,-330.4230769230769,2043.7307692307693,-55.73076923076923,25.846153846153847,-26.846153846153847
130.0,-101081.38461538461,0.0,-300.38461538461536,2043.8461538461538,-55.84615384615385,25.76923076923077,-26.76923076923077
132.0,-101051.34615384616,0.0,-270.3461538461538,2043.9615384615386,-55.96153846153846,25.692307692307693,-26.692307692307693
134.0,-101021.30769230769,0.0,-240.30769230769226,2044.076923076923,-56.07692307692308,25.615384615384617,-26.615384615384617
136.0,-100991.26923076923,0.0,-210.26923076923072,2044.1923076923076,-56.19230769230769,25.53846153846154,-26.53846153846154
138.0,-100961.23076923077,0.0,-180.23076923076917,2044.3076923076924,-56.30769230769231,25.46153846153846,-26.46153846153846
140.0,-100931.19230769231,0.0,-150.19230769230762,2044.423076923077,-56.42307692307692,25.384615384615383,-26.384615384615383
142.0,-100901.15384615384,0.0,-120.15384615384608,2044.5384615384614,-56.53846153846154,25.307692307692307,-26.307692307692307
144.0,-100871.11538461539,0.0,-90.11538461538453,2044.6538461538462,-56.65384615384615,25.23076923076923,-26.23076923076923
146.0,-100841.07692307692,0.0,-60.076923076923094,2044.7692307692307,-56.76923076923077,25.153846153846153,-26.153846153846153
148.0,-100811.03846153847,0.0,-30.038461538461547,2044.8846153846155,-56.88461538461539,25.076923076923077,-26.076923076923077
150.0,-100781.0,0.0,-15.01923076923077,2045.076923076923,-57.03846153846154,24.96153846153846,-25.98076923076923
152.0,-100781.0,0.0,-60.07692307692308,2045.3076923076924,-57.15384615384615,24.846153846153847,-25.923076923076923
154.0,-100781.0,0.0,-90.11538461538461,2045.4615384615386,-57.23076923076923,24.76923076923077,-25.884615384615383
156.0,-100781.0,0.0,-120.15384615384616,2045.6153846153845,-57.30769230769231,24.692307692307693,-25.846153846153847
158.0,-100781.0,0.0,-150.1923076923077,2045.7692307692307,-57.38461538461539,24.615384615384617,-25.807692307692307
160.0,-100781.0,0.0,-180.23076923076923,2045.923076923077,-57.46153846153846,24.53846153846154,-25.76923076923077
162.0,-100781.0,0.0,-210.26923076923077,2046.076923076923,-57.53846153846154,24.46153846153846,-25.73076923076923
164.0,-100781.0,0.0,-240.30769230769232,2046.2307692307693,-57.61538461538461,24.384615384615383,-25.692307692307693
166.0,-100781.0,0.0,-270.34615384615387,2046.3846153846155,-57.69230769230769,24.307692307692307,-25.653846153846153
168.0,-100781.0,0.0,-300.3846153846154,2046.5384615384614,-57.76923076923077,24.23076923076923,-25.615384615384617
170.0,-100781.0,0.0,-330.42307692307696,2046.6923076923076,-57.84615384615385,24.153846153846153,-25.576923076923077
172.0,-100781.0,0.0,-360.46153846153845,2046.8461538461538,-57.92307692307692,24.076923076923077,-25.53846153846154
174.0,-100781.0,0.0,-390.5,2047.0,-58.0,24.0,-25.5
176.0,-100781.0,0.0,-420.53846153846155,2047.1538461538462,-58.07692307692308,23.923076923076923,-25.46153846153846
178.0,-100781.0,0.0,-450.5769230769231,2047.3076923076924,-58.15384615384615,23.846153846153847,-25.423076923076923
180.0,-100781.0,0.0,-480.61538461538464,2047.4615384615386,-58.23076923076923,23.76923076923077,-25.384615384615383
182.0,-100781.0,0.0,-510.6538461538462,2047.6153846153845,-58.30769230769231,23.692307692307693,-25.346153846153847
184.0,-100781.0,0.0,-540.6923076923077,2047.7692307692307,-58.38461538461539,23.615384615384617,-25.307692307692307
186.0,-100781.0,0.0,-570.7307692307693,2047.923076923077,-58.46153846153846,23.53846153846154,-25.26923076923077
188.0,-100781.0,0.0,-600.7692307692308,2048.076923076923,-58.53846153846154,23.46153846153846,-25.23076923076923
190.0,-100781.0,0.0,-630.8076923076924,2048.230769230769,-58.61538461538461,23.384615384615383,-25.192307692307693
192.0,-100781.0,0.0,-660.8461538461539,2048.3846153846152,-58.69230769230769,23.307692307692307,-25.153846153846153
194.0,-100781.0,0.0,-690.8846153846155,2048.5384615384614,-58.76923076923077,23.23076923076923,-25.115384615384617
196.0,-100781.0,0.0,-720.9230769230769,2048.6923076923076,-58.84615384615385,23.153846153846153,-25.076923076923077
198.0,-100781.0,0.0,-750.9615384615385,2048.846153846154,-58.92307692307692,23.076923076923077,-25.03846153846154
200.0,-100765.98076923077,0.0,-765.9807692307693,2048.846153846154,-59.019230769230774,22.98076923076923,-24.98076923076923
202.0,-100720.92307692308,0.0,-720.9230769230769,2048.3846153846152,-59.07692307692308,22.923076923076923,-24.923076923076923
204.0,-100690.88461538461,0.0,-690.8846153846154,2048.076923076923,-59.11538461538461,22.884615384615383,-24.884615384615383
206.0,-100660.84615384616,0.0,-660.8461538461538,2047.7692307692307,-59.15384615384615,22.846153846153847,-24.846153846153847
208.0,-100630.80769230769,0.0,-630.8076923076923,2047.4615384615386,-59.19230769230769,22.807692307692307,-24.807692307692307
210.0,-100600.76923076923,0.0,-600.7692307692307,2047.1538461538462,-59.23076923076923,22.76923076923077,-24.76923076923077
212.0,-100570.73076923077,0.0,-570.7307692307693,2046.8461538461538,-59.26923076923077,22.73076923076923,-24.73076923076923
214.0,-100540.69230769231,0.0,-540.6923076923076,2046.5384615384614,-59.30769230769231,22.692307692307693,-24.692307692307693
216.0,-100510.65384615384,0.0,-510.65384615384613,2046.2307692307693,-59.34615384615385,22.653846153846153,-24.653846153846153
218.0,-100480.61538461539,0.0,-480.6153846153846,2045.923076923077,-59.38461538461539,22.615384615384617,-24.615384615384617
220.0,-100450.57692307692,0.0,-450.57692307692304,2045.6153846153845,-59.42307692307692,22.576923076923077,-24.576923076923077
222.0,-100420.53846153847,0.0,-420.53846153846155,2045.3076923076924,-59.46153846153846,22.53846153846154,-24.53846153846154
224.0,-100390.5,0.0,-390.5,2045.0,-59.5,22.5,-24.5
226.0,-100360.46153846153,0.0,-360.46153846153845,2044.6923076923076,-59.53846153846154,22.46153846153846,-24.46153846153846
228.0,-100330.42307692308,0.0,-330.4230769230769,2044.3846153846155,-59.57692307692308,22.423076923076923,-24.423076923076923
230.0,-100300.38461538461,0.0,-300.38461538461536,2044.076923076923,-59.61538461538461,22.384615384615383,-24.384615384615383
232.0,-100270.34615384616,0.0,-270.3461538461538,2043.7692307692307,-59.65384615384615,22.346153846153847,-24.346153846153847
234.0,-100240.30769230769,0.0,-240.30769230769226,2043.4615384615386,-59.69230769230769,22.307692307692307,-24.307692307692307
236.0,-100210.26923076923,0.0,-210.26923076923072,2043.1538461538462,-59.73076923076923,22.26923076923077,-24.26923076923077
238.0,-100180.23076923077,0.0,-180.23076923076917,2042.8461538461538,-59.76923076923077,22.23076923076923,-24.23076923076923
240.0,-100150.19230769231,0.0,-150.19230769230762,2042.5384615384614,-59.80769230769231,22.192307692307693,-24.192307692307693
242.0,-100120.15384615384,0.0,-120.15384615384608,2042.2307692307693,-59.84615384615385,22.153846153846153,-24.153846153846153
244.0,-100090.11538461539,0.0,-90.11538461538453,2041.923076923077,-59.88461538461539,22.115384615384617,-24.115384615384617
246.0,-100060.07692307692,0.0,-60.076923076923094,2041.6153846153845,-59.92307692307692,22.076923076923077,-24.076923076923077
248.0,-100030.03846153847,0.0,-30.038461538461547,2041.3076923076924,-59.96153846153846,22.03846153846154,-24.03846153846154
250.0,-99984.96153846153,0.0,30.03846153846154,2041.25,-60.0,21.98076923076923,-23.98076923076923
252.0,-99939.84615384616,0.0,120.15384615384616,2042.0,-60.0,21.923076923076923,-23.923076923076923
254.0,-99909.76923076923,0.0,180.23076923076923,2042.5,-60.0,21.884615384615383,-23.884615384615383
256.0,-99879.69230769231,0.0,240.30769230769232,2043.0,-60.0,21.846153846153847,-23.846153846153847
258.0,-99849.61538461539,0.0,300.3846153846154,2043.5,-60.0,21.807692307692307,-23.807692307692307
260.0,-99819.53846153847,0.0,360.46153846153845,2044.0,-60.0,21.76923076923077,-23.76923076923077
262.0,-99789.46153846153,0.0,420.53846153846155,2044.5,-60.0,21.73076923076923,-23.73076923076923
264.0,-99759.38461538461,0.0,480.61538461538464,2045.0,-60.0,21.692307692307693,-23.692307692307693
266.0,-99729.30769230769,0.0,540.6923076923077,2045.5,-60.0,21.653846153846153,-23.653846153846153
268.0,-99699.23076923077,0.0,600.7692307692308,2046.0,-60.0,21.615384615384617,-23.615384615384617
270.0,-99669.15384615384,0.0,660.8461538461539,2046.5,-60.0,21.576923076923077,-23.576923076923077
272.0,-99639.07692307692,0.0,720.9230769230769,2047.0,-60.0,21.53846153846154,-23.53846153846154
274.0,-99609.0,0.0,781.0,2047.5,-60.0,21.5,-23.5
276.0,-99578.92307692308,0.0,841.0769230769231,2048.0,-60.0,21.46153846153846,-23.46153846153846
278.0,-99548.84615384616,0.0,901.1538461538462,2048.5,-60.0,21.423076923076923,-23.423076923076923
280.0,-99518.76923076923,0.0,961.2307692307693,2049.0,-60.0,21.384615384615383,-23.384615384615383
282.0,-99488.69230769231,0.0,1021.3076923076924,2049.5,-60.0,21.346153846153847,-23.346153846153847
284.0,-99458.61538461539,0.0,1081.3846153846155,2050.0,-60.0,21.307692307692307,-23.307692307692307
286.0,-99428.53846153847,0.0,1141.4615384615386,2050.5,-60.0,21.26923076923077,-23.26923076923077
288.0,-99398.46153846153,0.0,1201.5384615384617,2051.0,-60.0,21.23076923076923,-23.23076923076923
290.0,-99368.38461538461,0.0,1261.6153846153848,2051.5,-60.0,21.192307692307693,-23.192307692307693
292.0,-99338.30769230769,0.0,1321.6923076923078,2052.0,-60.0,21.153846153846153,-23.153846153846153
294.0,-99308.23076923077,0.0,1381.769230769231,2052.5,-60.0,21.115384615384617,-23.115384615384617
296.0,-99278.15384615384,0.0,1441.8461538461538,2053.0,-60.0,21.076923076923077,-23.076923076923077
298.0,-99248.07692307692,0.0,1501.923076923077,2053.5,-60.0,21.03846153846154,-23.03846153846154
300.0,-99218.0,-30.03846153846154,1546.9807692307693,2053.9423076923076,-59.980769230769226,21.0,-23.0
302.0,-99218.0,-120.15384615384616,1501.923076923077,2053.769230769231,-59.92307692307692,21.0,-23.0
304.0,-99218.0,-180.23076923076923,1471.8846153846155,2053.653846153846,-59.88461538461539,21.0,-23.0
306.0,-99218.0,-240.30769230769232,1441.8461538461538,2053.5384615384614,-59.84615384615385,21.0,-23.0
308.0,-99218.0,-300.3846153846154,1411.8076923076924,2053.423076923077,-59.80769230769231,21.0,-23.0
310.0,-99218.0,-360.46153846153845,1381.7692307692307,2053.3076923076924,-59.76923076923077,21.0,-23.0
312.0,-99218.0,-420.53846153846155,1351.7307692307693,2053.1923076923076,-59.73076923076923,21.0,-23.0
314.0,-99218.0,-480.61538461538464,1321.6923076923076,2053.076923076923,-59.69230769230769,21.0,-23.0
316.0,-99218.0,-540.6923076923077,1291.6538461538462,2052.9615384615386,-59.65384615384615,21.0,-23.0
318.0,-99218.0,-600.7692307692308,1261.6153846153845,2052.846153846154,-59.61538461538461,21.0,-23.0
320.0,-99218.0,-660.8461538461539,1231.576923076923,2052.730769230769,-59.57692307692308,21.0,-23.0
322.0,-99218.0,-720.9230769230769,1201.5384615384614,2052.6153846153848,-59.53846153846154,21.0,-23.0
324.0,-99218.0,-781.0,1171.5,2052.5,-59.5,21.0,-23.0
326.0,-99218.0,-841.0769230769231,1141.4615384615386,2052.3846153846152,-59.46153846153846,21.0,-23.0
328.0,-99218.0,-901.1538461538462,1111.423076923077,2052.269230769231,-59.42307692307692,21.0,-23.0
330.0,-99218.0,-961.2307692307693,1081.3846153846152,2052.153846153846,-59.38461538461539,21.0,-23.0
332.0,-99218.0,-1021.3076923076924,1051.3461538461538,2052.0384615384614,-59.34615384615385,21.0,-23.0
334.0,-99218.0,-1081.3846153846155,1021.3076923076923,2051.923076923077,-59.30769230769231,21.0,-23.0
336.0,-99218.0,-1141.4615384615386,991.2692307692307,2051.8076923076924,-59.26923076923077,21.0,-23.0
338.0,-99218.0,-1201.5384615384617,961.2307692307692,2051.6923076923076,-59.23076923076923,21.0,-23.0
340.0,-99218.0,-1261.6153846153848,931.1923076923076,2051.576923076923,-59.19230769230769,21.0,-23.0
342.0,-99218.0,-1321.6923076923078,901.1538461538461,2051.4615384615386,-59.15384615384615,21.0,-23.0
344.0,-99218.0,-1381.769230769231,871.1153846153845,2051.346153846154,-59.11538461538461,21.0,-23.0
346.0,-99218.0,-1441.8461538461538,841.0769230769231,2051.230769230769,-59.07692307692308,21.0,-23.0
348.0,-99218.0,-1501.923076923077,811.0384615384615,2051.1153846153848,-59.03846153846154,21.0,-23.0
350.0,-99218.0,-1546.9807692307693,811.0384615384615,2050.8846153846152,-58.980769230769226,20.98076923076923,-22.98076923076923
352.0,-99218.0,-1501.923076923077,901.1538461538462,2050.5384615384614,-58.92307692307692,20.923076923076923,-22.923076923076923
354.0,-99218.0,-1471.8846153846155,961.2307692307693,2050.3076923076924,-58.88461538461539,20.884615384615383,-22.884615384615383
356.0,-99218.0,-1441.8461538461538,1021.3076923076924,2050.076923076923,-58.84615384615385,20.846153846153847,-22.846153846153847
358.0,-99218.0,-1411.8076923076924,1081.3846153846155,2049.846153846154,-58.80769230769231,20.807692307692307,-22.807692307692307
360.0,-99218.0,-1381.7692307692307,1141.4615384615386,2049.6153846153848,-58.76923076923077,20.76923076923077,-22.76923076923077
362.0,-99218.0,-1351.7307692307693,1201.5384615384614,2049.3846153846152,-58.73076923076923,20.73076923076923,-22.73076923076923
364.0,-99218.0,-1321.6923076923076,1261.6153846153848,2049.153846153846,-58.69230769230769,20.692307692307693,-22.692307692307693
366.0,-99218.0,-1291.6538461538462,1321.6923076923076,2048.923076923077,-58.65384615384615,20.653846153846153,-22.653846153846153
368.0,-99218.0,-1261.6153846153845,1381.769230769231,2048.6923076923076,-58.61538461538461,20.615384615384617,-22.615384615384617
370.0,-99218.0,-1231.576923076923,1441.8461538461538,2048.4615384615386,-58.57692307692308,20.576923076923077,-22.576923076923077
372.0,-99218.0,-1201.5384615384614,1501.923076923077,2048.230769230769,-58.53846153846154,20.53846153846154,-22.53846153846154
374.0,-99218.0,-1171.5,1562.0,2048.0,-58.5,20.5,-22.5
376.0,-99218.0,-1141.4615384615386,1622.076923076923,2047.7692307692307,-58.46153846153846,20.46153846153846,-22.46153846153846
378.0,-99218.0,-1111.423076923077,1682.1538461538462,2047.5384615384614,-58.42307692307692,20.423076923076923,-22.423076923076923
380.0,-99218.0,-1081.3846153846152,1742.2307692307693,2047.3076923076924,-58.38461538461539,20.384615384615383,-22.384615384615383
382.0,-99218.0,-1051.3461538461538,1802.3076923076924,2047.076923076923,-58.34615384615385,20.346153846153847,-22.346153846153847
384.0,-99218.0,-1021.3076923076923,1862.3846153846155,2046.8461538461538,-58.30769230769231,20.307692307692307,-22.307692307692307
386.0,-99218.0,-991.2692307692307,1922.4615384615386,2046.6153846153845,-58.26923076923077,20.26923076923077,-22.26923076923077
388.0,-99218.0,-961.2307692307692,1982.5384615384617,2046.3846153846155,-58.23076923076923,20.23076923076923,-22.23076923076923
390.0,-99218.0,-931.1923076923076,2042.6153846153848,2046.1538461538462,-58.19230769230769,20.192307692307693,-22.192307692307693
392.0,-99218.0,-901.1538461538461,2102.6923076923076,2045.923076923077,-58.15384615384615,20.153846153846153,-22.153846153846153
394.0,-99218.0,-871.1153846153845,2162.769230769231,2045.6923076923076,-58.11538461538461,20.115384615384617,-22.115384615384617
396.0,-99218.0,-841.0769230769231,2222.846153846154,2045.4615384615386,-58.07692307692308,20.076923076923077,-22.076923076923077
398.0,-99218.0,-811.0384615384615,2282.923076923077,2045.2307692307693,-58.03846153846154,20.03846153846154,-22.03846153846154
400.0,-99187.96153846153,-781.0,2343.0,2045.1153846153848,-57.92307692307692,20.01923076923077,-21.98076923076923
402.0,-99097.84615384616,-781.0,2343.0,2045.4615384615386,-57.69230769230769,20.076923076923077,-21.923076923076923
404.0,-99037.76923076923,-781.0,2343.0,2045.6923076923076,-57.53846153846154,20.115384615384617,-21.884615384615383
406.0,-98977.69230769231,-781.0,2343.0,2045.923076923077,-57.38461538461539,20.153846153846153,-21.846153846153847
408.0,-98917.61538461539,-781.0,2343.0,2046.1538461538462,-57.23076923076923,20.192307692307693,-21.807692307692307
410.0,-98857.53846153847,-781.0,2343.0,2046.3846153846155,-57.07692307692308,20.23076923076923,-21.76923076923077
412.0,-98797.46153846153,-781.0,2343.0,2046.6153846153845,-56.92307692307692,20.26923076923077,-21.73076923076923
414.0,-98737.38461538461,-781.0,2343.0,2046.8461538461538,-56.76923076923077,20.307692307692307,-21.692307692307693
416.0,-98677.30769230769,-781.0,2343.0,2047.076923076923,-56.61538461538461,20.346153846153847,-21.653846153846153
418.0,-98617.23076923077,-781.0,2343.0,2047.3076923076924,-56.46153846153846,20.384615384615383,-21.615384615384617
420.0,-98557.15384615384,-781.0,2343.0,2047.5384615384614,-56.30769230769231,20.423076923076923,-21.576923076923077
422.0,-98497.07692307692,-781.0,2343.0,2047.7692307692307,-56.15384615384615,20.46153846153846,-21.53846153846154
424.0,-98437.0,-781.0,2343.0,2048.0,-56.0,20.5,-21.5
426.0,-98376.92307692308,-781.0,2343.0,2048.230769230769,-55.84615384615385,20.53846153846154,-21.46153846153846
428.0,-98316.84615384616,-781.0,2343.0,2048.4615384615386,-55.69230769230769,20.576923076923077,-21.423076923076923
430.0,-98256.76923076923,-781.0,2343.0,2048.6923076923076,-55.53846153846154,20.615384615384617,-21.384615384615383
432.0,-98196.69230769231,-781.0,2343.0,2048.923076923077,-55.38461538461539,20.653846153846153,-21.346153846153847
434.0,-98136.61538461539,-781.0,2343.0,2049.153846153846,-55.23076923076923,20.692307692307693,-21.307692307692307
436.0,-98076.53846153847,-781.0,2343.0,2049.3846153846152,-55.07692307692308,20.73076923076923,-21.26923076923077
438.0,-98016.46153846153,-781.0,2343.0,2049.6153846153848,-54.92307692307692,20.76923076923077,-21.23076923076923
440.0,-97956.38461538461,-781.0,2343.0,2049.846153846154,-54.76923076923077,20.807692307692307,-21.192307692307693
442.0,-97896.30769230769,-781.0,2343.0,2050.076923076923,-54.61538461538461,20.846153846153847,-21.153846153846153
444.0,-97836.23076923077,-781.0,2343.0,2050.3076923076924,-54.46153846153846,20.884615384615383,-21.115384615384617
446.0,-97776.15384615384,-781.0,2343.0,2050.5384615384614,-54.30769230769231,20.923076923076923,-21.076923076923077
448.0,-97716.07692307692,-781.0,2343.0,2050.769230769231,-54.15384615384615,20.96153846153846,-21.03846153846154
450.0,-97656.0,-781.0,2327.9807692307695,2050.903846153846,-53.94230769230769,21.0,-20.98076923076923
452.0,-97656.0,-781.0,2282.923076923077,2050.6153846153848,-53.76923076923077,21.0,-20.923076923076923
454.0,-97656.0,-781.0,2252.8846153846152,2050.423076923077,-53.65384615384615,21.0,-20.884615384615383
456.0,-97656.0,-781.0,2222.846153846154,2050.230769230769,-53.53846153846154,21.0,-20.846153846153847
458.0,-97656.0,-781.0,2192.8076923076924,2050.0384615384614,-53.42307692307692,21.0,-20.807692307692307
460.0,-97656.0,-781.0,2162.769230769231,2049.846153846154,-53.30769230769231,21.0,-20.76923076923077
462.0,-97656.0,-781.0,2132.730769230769,2049.653846153846,-53.19230769230769,21.0,-20.73076923076923
464.0,-97656.0,-781.0,2102.6923076923076,2049.4615384615386,-53.07692307692308,21.0,-20.692307692307693
466.0,-97656.0,-781.0,2072.653846153846,2049.269230769231,-52.96153846153846,21.0,-20.653846153846153
468.0,-97656.0,-781.0,2042.6153846153845,2049.076923076923,-52.84615384615385,21.0,-20.615384615384617
470.0,-97656.0,-781.0,2012.576923076923,2048.8846153846152,-52.73076923076923,21.0,-20.576923076923077
472.0,-97656.0,-781.0,1982.5384615384614,2048.6923076923076,-52.61538461538461,21.0,-20.53846153846154
474.0,-97656.0,-781.0,1952.5,2048.5,-52.5,21.0,-20.5
476.0,-97656.0,-781.0,1922.4615384615386,2048.3076923076924,-52.38461538461539,21.0,-20.46153846153846
478.0,-97656.0,-781.0,1892.423076923077,2048.1153846153848,-52.26923076923077,21.0,-20.423076923076923
480.0,-97656.0,-781.0,1862.3846153846152,2047.923076923077,-52.15384615384615,21.0,-20.384615384615383
482.0,-97656.0,-781.0,1832.3461538461538,2047.7307692307693,-52.03846153846154,21.0,-20.346153846153847
484.0,-97656.0,-781.0,1802.3076923076924,2047.5384615384614,-51.92307692307692,21.0,-20.307692307692307
486.0,-97656.0,-781.0,1772.2692307692307,2047.3461538461538,-51.80769230769231,21.0,-20.26923076923077
488.0,-97656.0,-781.0,1742.230769230769,2047.1538461538462,-51.69230769230769,21.0,-20.23076923076923
490.0,-97656.0,-781.0,1712.1923076923076,2046.9615384615386,-51.57692307692308,21.0,-20.192307692307693
492.0,-97656.0,-781.0,1682.1538461538462,2046.7692307692307,-51.46153846153846,21.0,-20.153846153846153
494.0,-97656.0,-781.0,1652.1153846153845,2046.576923076923,-51.34615384615385,21.0,-20.115384615384617
496.0,-97656.0,-781.0,1622.076923076923,2046.3846153846155,-51.23076923076923,21.0,-20.076923076923077
498.0,-97656.0,-781.0,1592.0384615384614,2046.1923076923076,-51.11538461538461,21.0,-20.03846153846154
500.0,-97656.0,-765.9807692307693,1531.9615384615386,2046.0,-50.94230769230769,21.0,-20.01923076923077
502.0,-97656.0,-720.9230769230769,1441.8461538461538,2046.0,-50.76923076923077,21.0,-20.076923076923077
504.0,-97656.0,-690.8846153846154,1381.7692307692307,2046.0,-50.65384615384615,21.0,-20.115384615384617
506.0,-97656.0,-660.8461538461538,1321.6923076923076,2046.0,-50.53846153846154,21.0,-20.153846153846153
508.0,-97656.0,-630.8076923076923,1261.6153846153845,2046.0,-50.42307692307692,21.0,-20.192307692307693
510.0,-97656.0,-600.7692307692307,1201.5384615384614,2046.0,-50.30769230769231,21.0,-20.23076923076923
512.0,-97656.0,-570.7307692307693,1141.4615384615386,2046.0,-50.19230769230769,21.0,-20.26923076923077
514.0,-97656.0,-540.6923076923076,1081.3846153846152,2046.0,-50.07692307692308,21.0,-20.307692307692307
516.0,-97656.0,-510.65384615384613,1021.3076923076923,2046.0,-49.96153846153846,21.0,-20.346153846153847
518.0,-97656.0,-480.6153846153846,961.2307692307692,2046.0,-49.84615384615385,21.0,-20.384615384615383
520.0,-97656.0,-450.57692307692304,901.1538461538461,2046.0,-49.73076923076923,21.0,-20.423076923076923
522.0,-97656.0,-420.53846153846155,841.0769230769231,2046.0,-49.61538461538461,21.0,-20.46153846153846
524.0,-97656.0,-390.5,781.0,2046.0,-49.5,21.0,-20.5
526.0,-97656.0,-360.46153846153845,720.9230769230769,2046.0,-49.38461538461539,21.0,-20.53846153846154
528.0,-97656.0,-330.4230769230769,660.8461538461538,2046.0,-49.26923076923077,21.0,-20.576923076923077
530.0,-97656.0,-300.38461538461536,600.7692307692307,2046.0,-49.15384615384615,21.0,-20.615384615384617
532.0,-97656.0,-270.3461538461538,540.6923076923076,2046.0,-49.03846153846154,21.0,-20.653846153846153
534.0,-97656.0,-240.30769230769226,480.6153846153845,2046.0,-48.92307692307692,21.0,-20.692307692307693
536.0,-97656.0,-210.26923076923072,420.53846153846143,2046.0,-48.80769230769231,21.0,-20.73076923076923
538.0,-97656.0,-180.23076923076917,360.46153846153834,2046.0,-48.69230769230769,21.0,-20.76923076923077
540.0,-97656.0,-150.19230769230762,300.38461538461524,2046.0,-48.57692307692308,21.0,-20.807692307692307
542.0,-97656.0,-120.15384615384608,240.30769230769215,2046.0,-48.46153846153846,21.0,-20.846153846153847
544.0,-97656.0,-90.11538461538453,180.23076923076906,2046.0,-48.34615384615385,21.0,-20.884615384615383
546.0,-97656.0,-60.076923076923094,120.15384615384619,2046.0,-48.23076923076923,21.0,-20.923076923076923
548.0,-97656.0,-30.038461538461547,60.076923076923094,2046.0,-48.11538461538461,21.0,-20.96153846153846
550.0,-97656.0,-15.01923076923077,15.01923076923077,2046.0961538461538,-47.94230769230769,20.98076923076923,-20.98076923076923
552.0,-97656.0,-60.07692307692308,60.07692307692308,2046.3846153846155,-47.76923076923077,20.923076923076923,-20.923076923076923
554.0,-97656.0,-90.11538461538461,90.11538461538461,2046.576923076923,-47.65384615384615,20.884615384615383,-20.884615384615383
556.0,-97656.0,-120.15384615384616,120.15384615384616,2046.7692307692307,-47.53846153846154,20.846153846153847,-20.846153846153847
558.0,-97656.0,-150.1923076923077,150.1923076923077,2046.9615384615386,-47.42307692307692,20.807692307692307,-20.807692307692307
560.0,-97656.0,-180.23076923076923,180.23076923076923,2047.1538461538462,-47.30769230769231,20.76923076923077,-20.76923076923077
562.0,-97656.0,-210.26923076923077,210.26923076923077,2047.3461538461538,-47.19230769230769,20.73076923076923,-20.73076923076923
564.0,-97656.0,-240.30769230769232,240.30769230769232,2047.5384615384614,-47.07692307692308,20.692307692307693,-20.692307692307693
566.0,-97656.0,-270.34615384615387,270.34615384615387,2047.7307692307693,-46.96153846153846,20.653846153846153,-20.653846153846153
568.0,-97656.0,-300.3846153846154,300.3846153846154,2047.923076923077,-46.84615384615385,20.615384615384617,-20.615384615384617
570.0,-97656.0,-330.42307692307696,330.42307692307696,2048.1153846153848,-46.73076923076923,20.576923076923077,-20.576923076923077
572.0,-97656.0,-360.46153846153845,360.46153846153845,2048.3076923076924,-46.61538461538461,20.53846153846154,-20.53846153846154
574.0,-97656.0,-390.5,390.5,2048.5,-46.5,20.5,-20.5
576.0,-97656.0,-420.53846153846155,420.53846153846155,2048.6923076923076,-46.38461538461539,20.46153846153846,-20.46153846153846
578.0,-97656.0,-450.5769230769231,450.5769230769231,2048.8846153846152,-46.26923076923077,20.423076923076923,-20.423076923076923
580.0,-97656.0,-480.61538461538464,480.61538461538464,2049.076923076923,-46.15384615384615,20.384615384615383,-20.384615384615383
582.0,-97656.0,-510.6538461538462,510.6538461538462,2049.269230769231,-46.03846153846154,20.346153846153847,-20.346153846153847
584.0,-97656.0,-540.6923076923077,540.6923076923077,2049.4615384615386,-45.92307692307692,20.307692307692307,-20.307692307692307
586.0,-97656.0,-570.7307692307693,570.7307692307693,2049.653846153846,-45.80769230769231,20.26923076923077,-20.26923076923077
588.0,-97656.0,-600.7692307692308,600.7692307692308,2049.846153846154,-45.69230769230769,20.23076923076923,-20.23076923076923
590.0,-97656.0,-630.8076923076924,630.8076923076924,2050.0384615384614,-45.57692307692308,20.192307692307693,-20.192307692307693
592.0,-97656.0,-660.8461538461539,660.8461538461539,2050.230769230769,-45.46153846153846,20.153846153846153,-20.153846153846153
594.0,-97656.0,-690.8846153846155,690.8846153846155,2050.423076923077,-45.34615384615385,20.115384615384617,-20.115384615384617
596.0,-97656.0,-720.9230769230769,720.9230769230769,2050.6153846153848,-45.23076923076923,20.076923076923077,-20.076923076923077
598.0,-97656.0,-750.9615384615385,750.9615384615385,2050.8076923076924,-45.11538461538461,20.03846153846154,-20.03846153846154
600.0,-97701.07692307692,-781.0,765.9807692307693,2050.9615384615386,-44.96153846153846,20.01923076923077,-20.0
602.0,-97836.30769230769,-781.0,720.9230769230769,2050.846153846154,-44.84615384615385,20.076923076923077,-20.0
604.0,-97926.46153846153,-781.0,690.8846153846154,2050.769230769231,-44.76923076923077,20.115384615384617,-20.0
606.0,-98016.61538461539,-781.0,660.8461538461538,2050.6923076923076,-44.69230769230769,20.153846153846153,-20.0
608.0,-98106.76923076923,-781.0,630.8076923076923,2050.6153846153848,-44.61538461538461,20.192307692307693,-20.0
610.0,-98196.92307692308,-781.0,600.7692307692307,2050.5384615384614,-44.53846153846154,20.23076923076923,-20.0
612.0,-98287.07692307692,-781.0,570.7307692307693,2050.4615384615386,-44.46153846153846,20.26923076923077,-20.0
614.0,-98377.23076923077,-781.0,540.6923076923076,2050.3846153846152,-44.38461538461539,20.307692307692307,-20.0
616.0,-98467.38461538461,-781.0,510.65384615384613,2050.3076923076924,-44.30769230769231,20.346153846153847,-20.0
618.0,-98557.53846153847,-781.0,480.6153846153846,2050.230769230769,-44.23076923076923,20.384615384615383,-20.0
620.0,-98647.69230769231,-781.0,450.57692307692304,2050.153846153846,-44.15384615384615,20.423076923076923,-20.0
622.0,-98737.84615384616,-781.0,420.53846153846155,2050.076923076923,-44.07692307692308,20.46153846153846,-20.0
624.0,-98828.0,-781.0,390.5,2050.0,-44.0,20.5,-20.0
626.0,-98918.15384615384,-781.0,360.46153846153845,2049.923076923077,-43.92307692307692,20.53846153846154,-20.0
628.0,-99008.30769230769,-781.0,330.4230769230769,2049.846153846154,-43.84615384615385,20.576923076923077,-20.0
630.0,-99098.46153846153,-781.0,300.38461538461536,2049.769230769231,-43.76923076923077,20.615384615384617,-20.0
632.0,-99188.61538461539,-781.0,270.3461538461538,2049.6923076923076,-43.69230769230769,20.653846153846153,-20.0
634.0,-99278.76923076923,-781.0,240.30769230769226,2049.6153846153848,-43.61538461538461,20.692307692307693,-20.0
636.0,-99368.92307692308,-781.0,210.26923076923072,2049.5384615384614,-43.53846153846154,20.73076923076923,-20.0
638.0,-99459.07692307692,-781.0,180.23076923076917,2049.4615384615386,-43.46153846153846,20.76923076923077,-20.0
640.0,-99549.23076923077,-781.0,150.19230769230762,2049.3846153846152,-43.38461538461539,20.807692307692307,-20.0
642.0,-99639.38461538461,-781.0,120.15384615384608,2049.3076923076924,-43.30769230769231,20.846153846153847,-20.0
644.0,-99729.53846153847,-781.0,90.11538461538453,2049.230769230769,-43.23076923076923,20.884615384615383,-20.0
646.0,-99819.69230769231,-781.0,60.076923076923094,2049.153846153846,-43.15384615384615,20.923076923076923,-20.0
648.0,-99909.84615384616,-781.0,30.038461538461547,2049.076923076923,-43.07692307692308,20.96153846153846,-20.0
650.0,-100000.0,-765.9807692307693,-15.01923076923077,2049.0576923076924,-42.96153846153846,21.0,-19.98076923076923
652.0,-100000.0,-720.9230769230769,-60.07692307692308,2049.230769230769,-42.84615384615385,21.0,-19.923076923076923
654.0,-100000.0,-690.8846153846154,-90.11538461538461,2049.346153846154,-42.76923076923077,21.0,-19.884615384615383
656.0,-100000.0,-660.8461538461538,-120.15384615384616,2049.4615384615386,-42.69230769230769,21.0,-19.846153846153847
658.0,-100000.0,-630.8076923076923,-150.1923076923077,2049.576923076923,-42.61538461538461,21.0,-19.807692307692307
660.0,-100000.0,-600.7692307692307,-180.23076923076923,2049.6923076923076,-42.53846153846154,21.0,-19.76923076923077
662.0,-100000.0,-570.7307692307693,-210.26923076923077,2049.8076923076924,-42.46153846153846,21.0,-19.73076923076923
664.0,-100000.0,-540.6923076923076,-240.30769230769232,2049.923076923077,-42.38461538461539,21.0,-19.692307692307693
666.0,-100000.0,-510.65384615384613,-270.34615384615387,2050.0384615384614,-42.30769230769231,21.0,-19.653846153846153
668.0,-100000.0,-480.6153846153846,-300.3846153846154,2050.153846153846,-42.23076923076923,21.0,-19.615384615384617
670.0,-100000.0,-450.57692307692304,-330.42307692307696,2050.269230769231,-42.15384615384615,21.0,-19.576923076923077
672.0,-100000.0,-420.53846153846155,-360.46153846153845,2050.3846153846152,-42.07692307692308,21.0,-19.53846153846154
674.0,-100000.0,-390.5,-390.5,2050.5,-42.0,21.0,-19.5
676.0,-100000.0,-360.46153846153845,-420.53846153846155,2050.6153846153848,-41.92307692307692,21.0,-19.46153846153846
678.0,-100000.0,-330.4230769230769,-450.5769230769231,2050.730769230769,-41.84615384615385,21.0,-19.423076923076923
680.0,-100000.0,-300.38461538461536,-480.61538461538464,2050.846153846154,-41.76923076923077,21.0,-19.384615384615383
682.0,-100000.0,-270.3461538461538,-510.6538461538462,2050.9615384615386,-41.69230769230769,21.0,-19.346153846153847
684.0,-100000.0,-240.30769230769226,-540.6923076923077,2051.076923076923,-41.61538461538461,21.0,-19.307692307692307
686.0,-100000.0,-210.26923076923072,-570.7307692307693,2051.1923076923076,-41.53846153846154,21.0,-19.26923076923077
688.0,-100000.0,-180.23076923076917,-600.7692307692308,2051.3076923076924,-41.46153846153846,21.0,-19.23076923076923
690.0,-100000.0,-150.19230769230762,-630.8076923076924,2051.423076923077,-41.38461538461539,21.0,-19.192307692307693
692.0,-100000.0,-120.15384615384608,-660.8461538461539,2051.5384615384614,-41.30769230769231,21.0,-19.153846153846153
694.0,-100000.0,-90.11538461538453,-690.8846153846155,2051.653846153846,-41.23076923076923,21.0,-19.115384615384617
696.0,-100000.0,-60.076923076923094,-720.9230769230769,2051.769230769231,-41.15384615384615,21.0,-19.076923076923077
698.0,-100000.0,-30.038461538461547,-750.9615384615385,2051.8846153846152,-41.07692307692308,21.0,-19.03846153846154
700.0,-100015.01923076923,0.0,-811.0384615384615,2051.8076923076924,-41.019230769230774,20.98076923076923,-19.0
702.0,-100060.07692307692,0.0,-901.1538461538462,2051.230769230769,-41.07692307692308,20.923076923076923,-19.0
704.0,-100090.11538461539,0.0,-961.2307692307693,2050.846153846154,-41.11538461538461,20.884615384615383,-19.0
706.0,-100120.15384615384,0.0,-1021.3076923076924,2050.4615384615386,-41.15384615384615,20.846153846153847,-19.0
708.0,-100150.19230769231,0.0,-1081.3846153846155,2050.076923076923,-41.19230769230769,20.807692307692307,-19.0
710.0,-100180.23076923077,0.0,-1141.4615384615386,2049.6923076923076,-41.23076923076923,20.76923076923077,-19.0
712.0,-100210.26923076923,0.0,-1201.5384615384614,2049.3076923076924,-41.26923076923077,20.73076923076923,-19.0
714.0,-100240.30769230769,0.0,-1261.6153846153848,2048.923076923077,-41.30769230769231,20.692307692307693,-19.0
716.0,-100270.34615384616,0.0,-1321.6923076923076,2048.5384615384614,-41.34615384615385,20.653846153846153,-19.0
718.0,-100300.38461538461,0.0,-1381.769230769231,2048.153846153846,-41.38461538461539,20.615384615384617,-19.0
720.0,-100330.42307692308,0.0,-1441.8461538461538,2047.7692307692307,-41.42307692307692,20.576923076923077,-19.0
722.0,-100360.46153846153,0.0,-1501.923076923077,2047.3846153846155,-41.46153846153846,20.53846153846154,-19.0
724.0,-100390.5,0.0,-1562.0,2047.0,-41.5,20.5,-19.0
726.0,-100420.53846153847,0.0,-1622.076923076923,2046.6153846153845,-41.53846153846154,20.46153846153846,-19.0
728.0,-100450.57692307692,0.0,-1682.1538461538462,2046.2307692307693,-41.57692307692308,20.423076923076923,-19.0
730.0,-100480.61538461539,0.0,-1742.2307692307693,2045.8461538461538,-41.61538461538461,20.384615384615383,-19.0
732.0,-100510.65384615384,0.0,-1802.3076923076924,2045.4615384615386,-41.65384615384615,20.346153846153847,-19.0
734.0,-100540.69230769231,0.0,-1862.3846153846155,2045.076923076923,-41.69230769230769,20.307692307692307,-19.0
736.0,-100570.73076923077,0.0,-1922.4615384615386,2044.6923076923076,-41.73076923076923,20.26923076923077,-19.0
738.0,-100600.76923076923,0.0,-1982.5384615384617,2044.3076923076924,-41.76923076923077,20.23076923076923,-19.0
740.0,-100630.80769230769,0.0,-2042.6153846153848,2043.923076923077,-41.80769230769231,20.192307692307693,-19.0
742.0,-100660.84615384616,0.0,-2102.6923076923076,2043.5384615384614,-41.84615384615385,20.153846153846153,-19.0
744.0,-100690.88461538461,0.0,-2162.769230769231,2043.1538461538462,-41.88461538461539,20.115384615384617,-19.0
746.0,-100720.92307692308,0.0,-2222.846153846154,2042.7692307692307,-41.92307692307692,20.076923076923077,-19.0
748.0,-100750.96153846153,0.0,-2282.923076923077,2042.3846153846155,-41.96153846153846,20.03846153846154,-19.0
750.0,-100781.0,0.0,-2327.9807692307695,2042.2307692307693,-42.05769230769231,20.0,-19.0
752.0,-100781.0,0.0,-2282.923076923077,2042.923076923077,-42.23076923076923,20.0,-19.0
754.0,-100781.0,0.0,-2252.8846153846152,2043.3846153846155,-42.34615384615385,20.0,-19.0
756.0,-100781.0,0.0,-2222.846153846154,2043.8461538461538,-42.46153846153846,20.0,-19.0
758.0,-100781.0,0.0,-2192.8076923076924,2044.3076923076924,-42.57692307692308,20.0,-19.0
760.0,-100781.0,0.0,-2162.769230769231,2044.7692307692307,-42.69230769230769,20.0,-19.0
762.0,-100781.0,0.0,-2132.730769230769,2045.2307692307693,-42.80769230769231,20.0,-19.0
764.0,-100781.0,0.0,-2102.6923076923076,2045.6923076923076,-42.92307692307692,20.0,-19.0
766.0,-100781.0,0.0,-2072.653846153846,2046.1538461538462,-43.03846153846154,20.0,-19.0
768.0,-100781.0,0.0,-2042.6153846153845,2046.6153846153845,-43.15384615384615,20.0,-19.0
770.0,-100781.0,0.0,-2012.576923076923,2047.076923076923,-43.26923076923077,20.0,-19.0
772.0,-100781.0,0.0,-1982.5384615384614,2047.5384615384614,-43.38461538461539,20.0,-19.0
774.0,-100781.0,0.0,-1952.5,2048.0,-43.5,20.0,-19.0
776.0,-100781.0,0.0,-1922.4615384615386,2048.4615384615386,-43.61538461538461,20.0,-19.0
778.0,-100781.0,0.0,-1892.423076923077,2048.923076923077,-43.73076923076923,20.0,-19.0
780.0,-100781.0,0.0,-1862.3846153846152,2049.3846153846152,-43.84615384615385,20.0,-19.0
782.0,-100781.0,0.0,-1832.3461538461538,2049.846153846154,-43.96153846153846,20.0,-19.0
784.0,-100781.0,0.0,-1802.3076923076924,2050.3076923076924,-44.07692307692308,20.0,-19.0
786.0,-100781.0,0.0,-1772.2692307692307,2050.769230769231,-44.19230769230769,20.0,-19.0
788.0,-100781.0,0.0,-1742.230769230769,2051.230769230769,-44.30769230769231,20.0,-19.0
790.0,-100781.0,0.0,-1712.1923076923076,2051.6923076923076,-44.42307692307692,20.0,-19.0
792.0,-100781.0,0.0,-1682.1538461538462,2052.153846153846,-44.53846153846154,20.0,-19.0
794.0,-100781.0,0.0,-1652.1153846153845,2052.6153846153848,-44.65384615384615,20.0,-19.0
796.0,-100781.0,0.0,-1622.076923076923,2053.076923076923,-44.76923076923077,20.0,-19.0
798.0,-100781.0,0.0,-1592.0384615384614,2053.5384615384614,-44.88461538461539,20.0,-19.0
800.0,-100811.03846153847,-15.01923076923077,-1592.0576923076924,2053.846153846154,-45.05769230769231,20.0,-19.0
802.0,-100901.15384615384,-60.07692307692308,-1682.2307692307693,2053.3846153846152,-45.23076923076923,20.0,-19.0
804.0,-100961.23076923077,-90.11538461538461,-1742.3461538461538,2053.076923076923,-45.34615384615385,20.0,-19.0
806.0,-101021.30769230769,-120.15384615384616,-1802.4615384615386,2052.769230769231,-45.46153846153846,20.0,-19.0
808.0,-101081.38461538461,-150.1923076923077,-1862.576923076923,2052.4615384615386,-45.57692307692308,20.0,-19.0
810.0,-101141.46153846153,-180.23076923076923,-1922.6923076923076,2052.153846153846,-45.69230769230769,20.0,-19.0
812.0,-101201.53846153847,-210.26923076923077,-1982.8076923076924,2051.846153846154,-45.80769230769231,20.0,-19.0
814.0,-101261.61538461539,-240.30769230769232,-2042.923076923077,2051.5384615384614,-45.92307692307692,20.0,-19.0
816.0,-101321.69230769231,-270.34615384615387,-2103.0384615384614,2051.230769230769,-46.03846153846154,20.0,-19.0
818.0,-101381.76923076923,-300.3846153846154,-2163.153846153846,2050.923076923077,-46.15384615384615,20.0,-19.0
820.0,-101441.84615384616,-330.42307692307696,-2223.2692307692305,2050.6153846153848,-46.26923076923077,20.0,-19.0
822.0,-101501.92307692308,-360.46153846153845,-2283.3846153846152,2050.3076923076924,-46.38461538461539,20.0,-19.0
824.0,-101562.0,-390.5,-2343.5,2050.0,-46.5,20.0,-19.0
826.0,-101622.07692307692,-420.53846153846155,-2403.6153846153848,2049.6923076923076,-46.61538461538461,20.0,-19.0
828.0,-101682.15384615384,-450.5769230769231,-2463.730769230769,2049.3846153846152,-46.73076923076923,20.0,-19.0
830.0,-101742.23076923077,-480.61538461538464,-2523.846153846154,2049.076923076923,-46.84615384615385,20.0,-19.0
832.0,-101802.30769230769,-510.6538461538462,-2583.9615384615386,2048.769230769231,-46.96153846153846,20.0,-19.0
834.0,-101862.38461538461,-540.6923076923077,-2644.076923076923,2048.4615384615386,-47.07692307692308,20.0,-19.0
836.0,-101922.46153846153,-570.7307692307693,-2704.1923076923076,2048.153846153846,-47.19230769230769,20.0,-19.0
838.0,-101982.53846153847,-600.7692307692308,-2764.3076923076924,2047.8461538461538,-47.30769230769231,20.0,-19.0
840.0,-102042.61538461539,-630.8076923076924,-2824.423076923077,2047.5384615384614,-47.42307692307692,20.0,-19.0
842.0,-102102.69230769231,-660.8461538461539,-2884.5384615384614,2047.2307692307693,-47.53846153846154,20.0,-19.0
844.0,-102162.76923076923,-690.8846153846155,-2944.653846153846,2046.923076923077,-47.65384615384615,20.0,-19.0
846.0,-102222.84615384616,-720.9230769230769,-3004.7692307692305,2046.6153846153845,-47.76923076923077,20.0,-19.0
848.0,-102282.92307692308,-750.9615384615385,-3064.8846153846152,2046.3076923076924,-47.88461538461539,20.0,-19.0
850.0,-102343.0,-765.9807692307693,-3109.9615384615386,2045.923076923077,-48.09615384615385,19.98076923076923,-19.0
852.0,-102343.0,-720.9230769230769,-3064.846153846154,2045.6923076923076,-48.38461538461539,19.923076923076923,-19.0
854.0,-102343.0,-690.8846153846154,-3034.769230769231,2045.5384615384614,-48.57692307692308,19.884615384615383,-19.0
856.0,-102343.0,-660.8461538461538,-3004.6923076923076,2045.3846153846155,-48.76923076923077,19.846153846153847,-19.0
858.0,-102343.0,-630.8076923076923,-2974.6153846153848,2045.2307692307693,-48.96153846153846,19.807692307692307,-19.0
860.0,-102343.0,-600.7692307692307,-2944.5384615384614,2045.076923076923,-49.15384615384615,19.76923076923077,-19.0
862.0,-102343.0,-570.7307692307693,-2914.4615384615386,2044.923076923077,-49.34615384615385,19.73076923076923,-19.0
864.0,-102343.0,-540.6923076923076,-2884.3846153846152,2044.7692307692307,-49.53846153846154,19.692307692307693,-19.0
866.0,-102343.0,-510.65384615384613,-2854.3076923076924,2044.6153846153845,-49.73076923076923,19.653846153846153,-19.0
868.0,-102343.0,-480.6153846153846,-2824.230769230769,2044.4615384615386,-49.92307692307692,19.615384615384617,-19.0
870.0,-102343.0,-450.57692307692304,-2794.153846153846,2044.3076923076924,-50.11538461538461,19.576923076923077,-19.0
872.0,-102343.0,-420.53846153846155,-2764.076923076923,2044.1538461538462,-50.30769230769231,19.53846153846154,-19.0
874.0,-102343.0,-390.5,-2734.0,2044.0,-50.5,19.5,-19.0
876.0,-102343.0,-360.46153846153845,-2703.923076923077,2043.8461538461538,-50.69230769230769,19.46153846153846,-19.0
878.0,-102343.0,-330.4230769230769,-2673.846153846154,2043.6923076923076,-50.88461538461539,19.423076923076923,-19.0
880.0,-102343.0,-300.38461538461536,-2643.769230769231,2043.5384615384614,-51.07692307692308,19.384615384615383,-19.0
882.0,-102343.0,-270.3461538461538,-2613.6923076923076,2043.3846153846155,-51.26923076923077,19.346153846153847,-19.0
884.0,-102343.0,-240.30769230769226,-2583.6153846153848,2043.2307692307693,-51.46153846153846,19.307692307692307,-19.0
886.0,-102343.0,-210.26923076923072,-2553.5384615384614,2043.076923076923,-51.65384615384615,19.26923076923077,-19.0
888.0,-102343.0,-180.23076923076917,-2523.4615384615386,2042.923076923077,-51.84615384615385,19.23076923076923,-19.0
890.0,-102343.0,-150.19230769230762,-2493.3846153846152,2042.7692307692307,-52.03846153846154,19.192307692307693,-19.0
892.0,-102343.0,-120.15384615384608,-2463.3076923076924,2042.6153846153845,-52.23076923076923,19.153846153846153,-19.0
894.0,-102343.0,-90.11538461538453,-2433.2307692307695,2042.4615384615386,-52.42307692307692,19.115384615384617,-19.0
896.0,-102343.0,-60.076923076923094,-2403.153846153846,2042.3076923076924,-52.61538461538461,19.076923076923077,-19.0
898.0,-102343.0,-30.038461538461547,-2373.076923076923,2042.1538461538462,-52.80769230769231,19.03846153846154,-19.0
900.0,-102358.03846153847,0.0,-2343.0,2042.1923076923076,-53.07692307692308,19.01923076923077,-19.0
902.0,-102403.15384615384,0.0,-2343.0,2042.7692307692307,-53.30769230769231,19.076923076923077,-19.0
904.0,-102433.23076923077,0.0,-2343.0,2043.1538461538462,-53.46153846153846,19.115384615384617,-19.0
906.0,-102463.30769230769,0.0,-2343.0,2043.5384615384614,-53.61538461538461,19.153846153846153,-19.0
908.0,-102493.38461538461,0.0,-2343.0,2043.923076923077,-53.76923076923077,19.192307692307693,-19.0
910.0,-102523.46153846153,0.0,-2343.0,2044.3076923076924,-53.92307692307692,19.23076923076923,-19.0
912.0,-102553.53846153847,0.0,-2343.0,2044.6923076923076,-54.07692307692308,19.26923076923077,-19.0
914.0,-102583.61538461539,0.0,-2343.0,2045.076923076923,-54.23076923076923,19.307692307692307,-19.0
916.0,-102613.69230769231,0.0,-2343.0,2045.4615384615386,-54.38461538461539,19.346153846153847,-19.0
918.0,-102643.76923076923,0.0,-2343.0,2045.8461538461538,-54.53846153846154,19.384615384615383,-19.0
920.0,-102673.84615384616,0.0,-2343.0,2046.2307692307693,-54.69230769230769,19.423076923076923,-19.0
922.0,-102703.92307692308,0.0,-2343.0,2046.6153846153845,-54.84615384615385,19.46153846153846,-19.0
924.0,-102734.0,0.0,-2343.0,2047.0,-55.0,19.5,-19.0
926.0,-102764.07692307692,0.0,-2343.0,2047.3846153846155,-55.15384615384615,19.53846153846154,-19.0
928.0,-102794.15384615384,0.0,-2343.0,2047.7692307692307,-55.30769230769231,19.576923076923077,-19.0
930.0,-102824.23076923077,0.0,-2343.0,2048.153846153846,-55.46153846153846,19.615384615384617,-19.0
932.0,-102854.30769230769,0.0,-2343.0,2048.5384615384614,-55.61538461538461,19.653846153846153,-19.0
934.0,-102884.38461538461,0.0,-2343.0,2048.923076923077,-55.76923076923077,19.692307692307693,-19.0
936.0,-102914.46153846153,0.0,-2343.0,2049.3076923076924,-55.92307692307692,19.73076923076923,-19.0
938.0,-102944.53846153847,0.0,-2343.0,2049.6923076923076,-56.07692307692308,19.76923076923077,-19.0
940.0,-102974.61538461539,0.0,-2343.0,2050.076923076923,-56.23076923076923,19.807692307692307,-19.0
942.0,-103004.69230769231,0.0,-2343.0,2050.4615384615386,-56.38461538461539,19.846153846153847,-19.0
944.0,-103034.76923076923,0.0,-2343.0,2050.846153846154,-56.53846153846154,19.884615384615383,-19.0
946.0,-103064.84615384616,0.0,-2343.0,2051.230769230769,-56.69230769230769,19.923076923076923,-19.0
948.0,-103094.92307692308,0.0,-2343.0,2051.6153846153848,-56.84615384615385,19.96153846153846,-19.0
950.0,-103109.96153846153,-15.01923076923077,-2327.9807692307695,2051.9807692307695,-57.09615384615385,20.0,-19.01923076923077
952.0,-103064.84615384616,-60.07692307692308,-2282.923076923077,2051.923076923077,-57.38461538461539,20.0,-19.076923076923077
954.0,-103034.76923076923,-90.11538461538461,-2252.8846153846152,2051.8846153846152,-57.57692307692308,20.0,-19.115384615384617
956.0,-103004.69230769231,-120.15384615384616,-2222.846153846154,2051.846153846154,-57.76923076923077,20.0,-19.153846153846153
958.0,-102974.61538461539,-150.1923076923077,-2192.8076923076924,2051.8076923076924,-57.96153846153846,20.0,-19.192307692307693
960.0,-102944.53846153847,-180.23076923076923,-2162.769230769231,2051.769230769231,-58.15384615384615,20.0,-19.23076923076923
962.0,-102914.46153846153,-210.26923076923077,-2132.730769230769,2051.730769230769,-58.34615384615385,20.0,-19.26923076923077
964.0,-102884.38461538461,-240.30769230769232,-2102.6923076923076,2051.6923076923076,-58.53846153846154,20.0,-19.307692307692307
966.0,-102854.30769230769,-270.34615384615387,-2072.653846153846,2051.653846153846,-58.73076923076923,20.0,-19.346153846153847
968.0,-102824.23076923077,-300.3846153846154,-2042.6153846153845,2051.6153846153848,-58.92307692307692,20.0,-19.384615384615383
970.0,-102794.15384615384,-330.42307692307696,-2012.576923076923,2051.576923076923,-59.11538461538461,20.0,-19.423076923076923
972.0,-102764.07692307692,-360.46153846153845,-1982.5384615384614,2051.5384615384614,-59.30769230769231,20.0,-19.46153846153846
974.0,-102734.0,-390.5,-1952.5,2051.5,-59.5,20.0,-19.5
976.0,-102703.92307692308,-420.53846153846155,-1922.4615384615386,2051.4615384615386,-59.69230769230769,20.0,-19.53846153846154
978.0,-102673.84615384616,-450.5769230769231,-1892.423076923077,2051.423076923077,-59.88461538461539,20.0,-19.576923076923077
980.0,-102643.76923076923,-480.61538461538464,-1862.3846153846152,2051.3846153846152,-60.07692307692308,20.0,-19.615384615384617
982.0,-102613.69230769231,-510.6538461538462,-1832.3461538461538,2051.346153846154,-60.26923076923077,20.0,-19.653846153846153
984.0,-102583.61538461539,-540.6923076923077,-1802.3076923076924,2051.3076923076924,-60.46153846153846,20.0,-19.692307692307693
986.0,-102553.53846153847,-570.7307692307693,-1772.2692307692307,2051.269230769231,-60.65384615384615,20.0,-19.73076923076923
988.0,-102523.46153846153,-600.7692307692308,-1742.230769230769,2051.230769230769,-60.84615384615385,20.0,-19.76923076923077
990.0,-102493.38461538461,-630.8076923076924,-1712.1923076923076,2051.1923076923076,-61.03846153846154,20.0,-19.807692307692307
992.0,-102463.30769230769,-660.8461538461539,-1682.1538461538462,2051.153846153846,-61.23076923076923,20.0,-19.846153846153847
994.0,-102433.23076923077,-690.8846153846155,-1652.1153846153845,2051.1153846153848,-61.42307692307692,20.0,-19.884615384615383
996.0,-102403.15384615384,-720.9230769230769,-1622.076923076923,2051.076923076923,-61.61538461538461,20.0,-19.923076923076923
998.0,-102373.07692307692,-750.9615384615385,-1592.0384615384614,2051.0384615384614,-61.80769230769231,20.0,-19.96153846153846
1000.0,-102343.0,-781.0,-1577.0192307692307,2051.0192307692305,-62.09615384615385,20.01923076923077,-20.0
1002.0,-102343.0,-781.0,-1622.076923076923,2051.076923076923,-62.38461538461539,20.076923076923077,-20.0
1004.0,-102343.0,-781.0,-1652.1153846153845,2051.1153846153848,-62.57692307692308,20.115384615384617,-20.0
1006.0,-102343.0,-781.0,-1682.1538461538462,2051.153846153846,-62.76923076923077,20.153846153846153,-20.0
1008.0,-102343.0,-781.0,-1712.1923076923076,2051.1923076923076,-62.96153846153846,20.192307692307693,-20.0
1010.0,-102343.0,-781.0,-1742.2307692307693,2051.230769230769,-63.15384615384615,20.23076923076923,-20.0
1012.0,-102343.0,-781.0,-1772.2692307692307,2051.269230769231,-63.34615384615385,20.26923076923077,-20.0
1014.0,-102343.0,-781.0,-1802.3076923076924,2051.3076923076924,-63.53846153846154,20.307692307692307,-20.0
1016.0,-102343.0,-781.0,-1832.3461538461538,2051.346153846154,-63.73076923076923,20.346153846153847,-20.0
1018.0,-102343.0,-781.0,-1862.3846153846155,2051.3846153846152,-63.92307692307692,20.384615384615383,-20.0
1020.0,-102343.0,-781.0,-1892.423076923077,2051.423076923077,-64.11538461538461,20.423076923076923,-20.0
1022.0,-102343.0,-781.0,-1922.4615384615386,2051.4615384615386,-64.3076923076923,20.46153846153846,-20.0
1024.0,-102343.0,-781.0,-1952.5,2051.5,-64.5,20.5,-20.0
1026.0,-102343.0,-781.0,-1982.5384615384614,2051.5384615384614,-64.6923076923077,20.53846153846154,-20.0
1028.0,-102343.0,-781.0,-2012.576923076923,2051.576923076923,-64.88461538461539,20.576923076923077,-20.0
1030.0,-102343.0,-781.0,-2042.6153846153848,2051.6153846153848,-65.07692307692308,20.615384615384617,-20.0
1032.0,-102343.0,-781.0,-2072.653846153846,2051.653846153846,-65.26923076923077,20.653846153846153,-20.0
1034.0,-102343.0,-781.0,-2102.6923076923076,2051.6923076923076,-65.46153846153847,20.692307692307693,-20.0
1036.0,-102343.0,-781.0,-2132.7307692307695,2051.730769230769,-65.65384615384616,20.73076923076923,-20.0
1038.0,-102343.0,-781.0,-2162.769230769231,2051.769230769231,-65.84615384615384,20.76923076923077,-20.0
1040.0,-102343.0,-781.0,-2192.8076923076924,2051.8076923076924,-66.03846153846153,20.807692307692307,-20.0
1042.0,-102343.0,-781.0,-2222.846153846154,2051.846153846154,-66.23076923076923,20.846153846153847,-20.0
1044.0,-102343.0,-781.0,-2252.8846153846152,2051.8846153846152,-66.42307692307692,20.884615384615383,-20.0
1046.0,-102343.0,-781.0,-2282.923076923077,2051.923076923077,-66.61538461538461,20.923076923076923,-20.0
1048.0,-102343.0,-781.0,-2312.9615384615386,2051.9615384615386,-66.8076923076923,20.96153846153846,-20.0
1050.0,-102327.98076923077,-781.0,-2327.9807692307695,2051.8653846153848,-67.07692307692308,21.0,-20.03846153846154
1052.0,-102282.92307692308,-781.0,-2282.923076923077,2051.4615384615386,-67.3076923076923,21.0,-20.153846153846153
1054.0,-102252.88461538461,-781.0,-2252.8846153846152,2051.1923076923076,-67.46153846153847,21.0,-20.23076923076923
1056.0,-102222.84615384616,-781.0,-2222.846153846154,2050.923076923077,-67.61538461538461,21.0,-20.307692307692307
1058.0,-102192.80769230769,-781.0,-2192.8076923076924,2050.653846153846,-67.76923076923077,21.0,-20.384615384615383
1060.0,-102162.76923076923,-781.0,-2162.769230769231,2050.3846153846152,-67.92307692307692,21.0,-20.46153846153846
1062.0,-102132.73076923077,-781.0,-2132.730769230769,2050.1153846153848,-68.07692307692308,21.0,-20.53846153846154
1064.0,-102102.69230769231,-781.0,-2102.6923076923076,2049.846153846154,-68.23076923076923,21.0,-20.615384615384617
1066.0,-102072.65384615384,-781.0,-2072.653846153846,2049.576923076923,-68.38461538461539,21.0,-20.692307692307693
1068.0,-102042.61538461539,-781.0,-2042.6153846153845,2049.3076923076924,-68.53846153846153,21.0,-20.76923076923077
1070.0,-102012.57692307692,-781.0,-2012.576923076923,2049.0384615384614,-68.6923076923077,21.0,-20.846153846153847
1072.0,-101982.53846153847,-781.0,-1982.5384615384614,2048.769230769231,-68.84615384615384,21.0,-20.923076923076923
1074.0,-101952.5,-781.0,-1952.5,2048.5,-69.0,21.0,-21.0
1076.0,-101922.46153846153,-781.0,-1922.4615384615386,2048.230769230769,-69.15384615384616,21.0,-21.076923076923077
1078.0,-101892.42307692308,-781.0,-1892.423076923077,2047.9615384615386,-69.3076923076923,21.0,-21.153846153846153
1080.0,-101862.38461538461,-781.0,-1862.3846153846152,2047.6923076923076,-69.46153846153847,21.0,-21.23076923076923
1082.0,-101832.34615384616,-781.0,-1832.3461538461538,2047.423076923077,-69.61538461538461,21.0,-21.307692307692307
1084.0,-101802.30769230769,-781.0,-1802.3076923076924,2047.1538461538462,-69.76923076923077,21.0,-21.384615384615383
1086.0,-101772.26923076923,-781.0,-1772.2692307692307,2046.8846153846155,-69.92307692307692,21.0,-21.46153846153846
1088.0,-101742.23076923077,-781.0,-1742.230769230769,2046.6153846153845,-70.07692307692308,21.0,-21.53846153846154
1090.0,-101712.19230769231,-781.0,-1712.1923076923076,2046.3461538461538,-70.23076923076923,21.0,-21.615384615384617
1092.0,-101682.15384615384,-781.0,-1682.1538461538462,2046.076923076923,-70.38461538461539,21.0,-21.692307692307693
1094.0,-101652.11538461539,-781.0,-1652.1153846153845,2045.8076923076924,-70.53846153846153,21.0,-21.76923076923077
1096.0,-101622.07692307692,-781.0,-1622.076923076923,2045.5384615384614,-70.6923076923077,21.0,-21.846153846153847
1098.0,-101592.03846153847,-781.0,-1592.0384615384614,2045.2692307692307,-70.84615384615384,21.0,-21.923076923076923
1100.0,-101562.0,-811.0384615384615,-1562.0,2045.0,-71.07692307692308,21.01923076923077,-22.0
1102.0,-101562.0,-901.1538461538462,-1562.0,2045.0,-71.3076923076923,21.076923076923077,-22.0
1104.0,-101562.0,-961.2307692307693,-1562.0,2045.0,-71.46153846153847,21.115384615384617,-22.0
1106.0,-101562.0,-1021.3076923076924,-1562.0,2045.0,-71.61538461538461,21.153846153846153,-22.0
1108.0,-101562.0,-1081.3846153846155,-1562.0,2045.0,-71.76923076923077,21.192307692307693,-22.0
1110.0,-101562.0,-1141.4615384615386,-1562.0,2045.0,-71.92307692307692,21.23076923076923,-22.0
1112.0,-101562.0,-1201.5384615384614,-1562.0,2045.0,-72.07692307692308,21.26923076923077,-22.0
1114.0,-101562.0,-1261.6153846153848,-1562.0,2045.0,-72.23076923076923,21.307692307692307,-22.0
1116.0,-101562.0,-1321.6923076923076,-1562.0,2045.0,-72.38461538461539,21.346153846153847,-22.0
1118.0,-101562.0,-1381.769230769231,-1562.0,2045.0,-72.53846153846153,21.384615384615383,-22.0
1120.0,-101562.0,-1441.8461538461538,-1562.0,2045.0,-72.6923076923077,21.423076923076923,-22.0
1122.0,-101562.0,-1501.923076923077,-1562.0,2045.0,-72.84615384615384,21.46153846153846,-22.0
1124.0,-101562.0,-1562.0,-1562.0,2045.0,-73.0,21.5,-22.0
1126.0,-101562.0,-1622.076923076923,-1562.0,2045.0,-73.15384615384616,21.53846153846154,-22.0
1128.0,-101562.0,-1682.1538461538462,-1562.0,2045.0,-73.3076923076923,21.576923076923077,-22.0
1130.0,-101562.0,-1742.2307692307693,-1562.0,2045.0,-73.46153846153847,21.615384615384617,-22.0
1132.0,-101562.0,-1802.3076923076924,-1562.0,2045.0,-73.61538461538461,21.653846153846153,-22.0
1134.0,-101562.0,-1862.3846153846155,-1562.0,2045.0,-73.76923076923077,21.692307692307693,-22.0
1136.0,-101562.0,-1922.4615384615386,-1562.0,2045.0,-73.92307692307692,21.73076923076923,-22.0
1138.0,-101562.0,-1982.5384615384617,-1562.0,2045.0,-74.07692307692308,21.76923076923077,-22.0
1140.0,-101562.0,-2042.6153846153848,-1562.0,2045.0,-74.23076923076923,21.807692307692307,-22.0
1142.0,-101562.0,-2102.6923076923076,-1562.0,2045.0,-74.38461538461539,21.846153846153847,-22.0
1144.0,-101562.0,-2162.769230769231,-1562.0,2045.0,-74.53846153846153,21.884615384615383,-22.0
1146.0,-101562.0,-2222.846153846154,-1562.0,2045.0,-74.6923076923077,21.923076923076923,-22.0
1148.0,-101562.0,-2282.923076923077,-1562.0,2045.0,-74.84615384615384,21.96153846153846,-22.0
1150.0,-101562.0,-2358.0384615384614,-1546.9807692307693,2044.923076923077,-75.0576923076923,22.03846153846154,-22.03846153846154
1152.0,-101562.0,-2403.153846153846,-1501.923076923077,2044.6923076923076,-75.23076923076923,22.153846153846153,-22.153846153846153
1154.0,-101562.0,-2433.230769230769,-1471.8846153846155,2044.5384615384614,-75.34615384615384,22.23076923076923,-22.23076923076923
1156.0,-101562.0,-2463.3076923076924,-1441.8461538461538,2044.3846153846155,-75.46153846153847,22.307692307692307,-22.307692307692307
1158.0,-101562.0,-2493.3846153846152,-1411.8076923076924,2044.2307692307693,-75.57692307692308,22.384615384615383,-22.384615384615383
1160.0,-101562.0,-2523.4615384615386,-1381.7692307692307,2044.076923076923,-75.6923076923077,22.46153846153846,-22.46153846153846
1162.0,-101562.0,-2553.5384615384614,-1351.7307692307693,2043.923076923077,-75.8076923076923,22.53846153846154,-22.53846153846154
1164.0,-101562.0,-2583.6153846153848,-1321.6923076923076,2043.7692307692307,-75.92307692307692,22.615384615384617,-22.615384615384617
1166.0,-101562.0,-2613.6923076923076,-1291.6538461538462,2043.6153846153845,-76.03846153846153,22.692307692307693,-22.692307692307693
1168.0,-101562.0,-2643.769230769231,-1261.6153846153845,2043.4615384615386,-76.15384615384616,22.76923076923077,-22.76923076923077
1170.0,-101562.0,-2673.846153846154,-1231.576923076923,2043.3076923076924,-76.26923076923077,22.846153846153847,-22.846153846153847
1172.0,-101562.0,-2703.923076923077,-1201.5384615384614,2043.1538461538462,-76.38461538461539,22.923076923076923,-22.923076923076923
1174.0,-101562.0,-2734.0,-1171.5,2043.0,-76.5,23.0,-23.0
1176.0,-101562.0,-2764.076923076923,-1141.4615384615386,2042.8461538461538,-76.61538461538461,23.076923076923077,-23.076923076923077
1178.0,-101562.0,-2794.153846153846,-1111.423076923077,2042.6923076923076,-76.73076923076923,23.153846153846153,-23.153846153846153
1180.0,-101562.0,-2824.230769230769,-1081.3846153846152,2042.5384615384614,-76.84615384615384,23.23076923076923,-23.23076923076923
1182.0,-101562.0,-2854.3076923076924,-1051.3461538461538,2042.3846153846155,-76.96153846153847,23.307692307692307,-23.307692307692307
1184.0,-101562.0,-2884.3846153846152,-1021.3076923076923,2042.2307692307693,-77.07692307692308,23.384615384615383,-23.384615384615383
1186.0,-101562.0,-2914.4615384615386,-991.2692307692307,2042.076923076923,-77.1923076923077,23.46153846153846,-23.46153846153846
1188.0,-101562.0,-2944.5384615384614,-961.2307692307692,2041.923076923077,-77.3076923076923,23.53846153846154,-23.53846153846154
1190.0,-101562.0,-2974.6153846153848,-931.1923076923076,2041.7692307692307,-77.42307692307692,23.615384615384617,-23.615384615384617
1192.0,-101562.0,-3004.6923076923076,-901.1538461538461,2041.6153846153845,-77.53846153846153,23.692307692307693,-23.692307692307693
1194.0,-101562.0,-3034.7692307692305,-871.1153846153845,2041.4615384615386,-77.65384615384616,23.76923076923077,-23.76923076923077
1196.0,-101562.0,-3064.846153846154,-841.0769230769231,2041.3076923076924,-77.76923076923077,23.846153846153847,-23.846153846153847
1198.0,-101562.0,-3094.923076923077,-811.0384615384615,2041.1538461538462,-77.88461538461539,23.923076923076923,-23.923076923076923
1200.0,-101546.98076923077,-3109.9615384615386,-750.9615384615385,2041.2115384615386,-78.01923076923077,23.98076923076923,-24.03846153846154
1202.0,-101501.92307692308,-3064.846153846154,-660.8461538461538,2041.8461538461538,-78.07692307692308,23.923076923076923,-24.153846153846153
1204.0,-101471.88461538461,-3034.769230769231,-600.7692307692307,2042.2692307692307,-78.11538461538461,23.884615384615383,-24.23076923076923
1206.0,-101441.84615384616,-3004.6923076923076,-540.6923076923076,2042.6923076923076,-78.15384615384616,23.846153846153847,-24.307692307692307
1208.0,-101411.80769230769,-2974.6153846153848,-480.6153846153846,2043.1153846153845,-78.1923076923077,23.807692307692307,-24.384615384615383
1210.0,-101381.76923076923,-2944.5384615384614,-420.53846153846155,2043.5384615384614,-78.23076923076923,23.76923076923077,-24.46153846153846
1212.0,-101351.73076923077,-2914.4615384615386,-360.46153846153845,2043.9615384615386,-78.26923076923077,23.73076923076923,-24.53846153846154
1214.0,-101321.69230769231,-2884.3846153846152,-300.38461538461536,2044.3846153846155,-78.3076923076923,23.692307692307693,-24.615384615384617
1216.0,-101291.65384615384,-2854.3076923076924,-240.30769230769226,2044.8076923076924,-78.34615384615384,23.653846153846153,-24.692307692307693
1218.0,-101261.61538461539,-2824.230769230769,-180.23076923076917,2045.2307692307693,-78.38461538461539,23.615384615384617,-24.76923076923077
1220.0,-101231.57692307692,-2794.153846153846,-120.15384615384608,2045.6538461538462,-78.42307692307692,23.576923076923077,-24.846153846153847
1222.0,-101201.53846153847,-2764.076923076923,-60.076923076923094,2046.076923076923,-78.46153846153847,23.53846153846154,-24.923076923076923
1224.0,-101171.5,-2734.0,0.0,2046.5,-78.5,23.5,-25.0
1226.0,-101141.46153846153,-2703.923076923077,60.076923076923094,2046.923076923077,-78.53846153846153,23.46153846153846,-25.076923076923077
1228.0,-101111.42307692308,-2673.846153846154,120.15384615384619,2047.3461538461538,-78.57692307692308,23.423076923076923,-25.153846153846153
1230.0,-101081.38461538461,-2643.769230769231,180.23076923076928,2047.7692307692307,-78.61538461538461,23.384615384615383,-25.23076923076923
1232.0,-101051.34615384616,-2613.6923076923076,240.30769230769238,2048.1923076923076,-78.65384615384616,23.346153846153847,-25.307692307692307
1234.0,-101021.30769230769,-2583.6153846153848,300.3846153846155,2048.6153846153848,-78.6923076923077,23.307692307692307,-25.384615384615383
1236.0,-100991.26923076923,-2553.5384615384614,360.46153846153857,2049.0384615384614,-78.73076923076923,23.26923076923077,-25.46153846153846
1238.0,-100961.23076923077,-2523.4615384615386,420.53846153846166,2049.4615384615386,-78.76923076923077,23.23076923076923,-25.53846153846154
1240.0,-100931.19230769231,-2493.3846153846152,480.61538461538476,2049.8846153846152,-78.8076923076923,23.192307692307693,-25.615384615384617
1242.0,-100901.15384615384,-2463.3076923076924,540.6923076923078,2050.3076923076924,-78.84615384615384,23.153846153846153,-25.692307692307693
1244.0,-100871.11538461539,-2433.2307692307695,600.769230769231,2050.730769230769,-78.88461538461539,23.115384615384617,-25.76923076923077
1246.0,-100841.07692307692,-2403.153846153846,660.8461538461538,2051.153846153846,-78.92307692307692,23.076923076923077,-25.846153846153847
1248.0,-100811.03846153847,-2373.076923076923,720.9230769230769,2051.576923076923,-78.96153846153847,23.03846153846154,-25.923076923076923
1250.0,-100796.01923076923,-2312.9615384615386,781.0,2051.903846153846,-79.0,23.0,-26.01923076923077
1252.0,-100841.07692307692,-2222.846153846154,781.0,2051.6153846153848,-79.0,23.0,-26.076923076923077
1254.0,-100871.11538461539,-2162.769230769231,781.0,2051.423076923077,-79.0,23.0,-26.115384615384617
1256.0,-100901.15384615384,-2102.6923076923076,781.0,2051.230769230769,-79.0,23.0,-26.153846153846153
1258.0,-100931.19230769231,-2042.6153846153845,781.0,2051.0384615384614,-79.0,23.0,-26.192307692307693
1260.0,-100961.23076923077,-1982.5384615384614,781.0,2050.846153846154,-79.0,23.0,-26.23076923076923
1262.0,-100991.26923076923,-1922.4615384615386,781.0,2050.653846153846,-79.0,23.0,-26.26923076923077
1264.0,-101021.30769230769,-1862.3846153846152,781.0,2050.4615384615386,-79.0,23.0,-26.307692307692307
1266.0,-101051.34615384616,-1802.3076923076924,781.0,2050.269230769231,-79.0,23.0,-26.346153846153847
1268.0,-101081.38461538461,-1742.230769230769,781.0,2050.076923076923,-79.0,23.0,-26.384615384615383
1270.0,-101111.42307692308,-1682.1538461538462,781.0,2049.8846153846152,-79.0,23.0,-26.423076923076923
1272.0,-101141.46153846153,-1622.076923076923,781.0,2049.6923076923076,-79.0,23.0,-26.46153846153846
1274.0,-101171.5,-1562.0,781.0,2049.5,-79.0,23.0,-26.5
1276.0,-101201.53846153847,-1501.923076923077,781.0,2049.3076923076924,-79.0,23.0,-26.53846153846154
1278.0,-101231.57692307692,-1441.8461538461538,781.0,2049.1153846153848,-79.0,23.0,-26.576923076923077
1280.0,-101261.61538461539,-1381.7692307692307,781.0,2048.923076923077,-79.0,23.0,-26.615384615384617
1282.0,-101291.65384615384,-1321.6923076923076,781.0,2048.730769230769,-79.0,23.0,-26.653846153846153
1284.0,-101321.69230769231,-1261.6153846153845,781.0,2048.5384615384614,-79.0,23.0,-26.692307692307693
1286.0,-101351.73076923077,-1201.5384615384614,781.0,2048.346153846154,-79.0,23.0,-26.73076923076923
1288.0,-101381.76923076923,-1141.4615384615383,781.0,2048.153846153846,-79.0,23.0,-26.76923076923077
1290.0,-101411.80769230769,-1081.3846153846152,781.0,2047.9615384615386,-79.0,23.0,-26.807692307692307
1292.0,-101441.84615384616,-1021.3076923076922,781.0,2047.7692307692307,-79.0,23.0,-26.846153846153847
1294.0,-101471.88461538461,-961.230769230769,781.0,2047.576923076923,-79.0,23.0,-26.884615384615383
1296.0,-101501.92307692308,-901.1538461538462,781.0,2047.3846153846155,-79.0,23.0,-26.923076923076923
1298.0,-101531.96153846153,-841.0769230769231,781.0,2047.1923076923076,-79.0,23.0,-26.96153846153846
1300.0,-101516.92307692308,-796.0192307692307,781.0,2047.0384615384614,-78.96153846153845,23.01923076923077,-27.03846153846154
1302.0,-101381.69230769231,-841.0769230769231,781.0,2047.1538461538462,-78.84615384615384,23.076923076923077,-27.153846153846153
1304.0,-101291.53846153847,-871.1153846153846,781.0,2047.2307692307693,-78.76923076923077,23.115384615384617,-27.23076923076923
1306.0,-101201.38461538461,-901.1538461538462,781.0,2047.3076923076924,-78.6923076923077,23.153846153846153,-27.307692307692307
1308.0,-101111.23076923077,-931.1923076923077,781.0,2047.3846153846155,-78.61538461538461,23.192307692307693,-27.384615384615383
1310.0,-101021.07692307692,-961.2307692307693,781.0,2047.4615384615386,-78.53846153846153,23.23076923076923,-27.46153846153846
1312.0,-100930.92307692308,-991.2692307692307,781.0,2047.5384615384614,-78.46153846153847,23.26923076923077,-27.53846153846154
1314.0,-100840.76923076923,-1021.3076923076924,781.0,2047.6153846153845,-78.38461538461539,23.307692307692307,-27.615384615384617
1316.0,-100750.61538461539,-1051.3461538461538,781.0,2047.6923076923076,-78.3076923076923,23.346153846153847,-27.692307692307693
1318.0,-100660.46153846153,-1081.3846153846155,781.0,2047.7692307692307,-78.23076923076923,23.384615384615383,-27.76923076923077
1320.0,-100570.30769230769,-1111.423076923077,781.0,2047.8461538461538,-78.15384615384616,23.423076923076923,-27.846153846153847
1322.0,-100480.15384615384,-1141.4615384615386,781.0,2047.923076923077,-78.07692307692308,23.46153846153846,-27.923076923076923
1324.0,-100390.0,-1171.5,781.0,2048.0,-78.0,23.5,-28.0
1326.0,-100299.84615384616,-1201.5384615384614,781.0,2048.076923076923,-77.92307692307692,23.53846153846154,-28.076923076923077
1328.0,-100209.69230769231,-1231.576923076923,781.0,2048.153846153846,-77.84615384615384,23.576923076923077,-28.153846153846153
1330.0,-100119.53846153847,-1261.6153846153848,781.0,2048.230769230769,-77.76923076923077,23.615384615384617,-28.23076923076923
1332.0,-100029.38461538461,-1291.6538461538462,781.0,2048.3076923076924,-77.6923076923077,23.653846153846153,-28.307692307692307
1334.0,-99939.23076923077,-1321.6923076923076,781.0,2048.3846153846152,-77.61538461538461,23.692307692307693,-28.384615384615383
1336.0,-99849.07692307692,-1351.7307692307693,781.0,2048.4615384615386,-77.53846153846153,23.73076923076923,-28.46153846153846
1338.0,-99758.92307692308,-1381.769230769231,781.0,2048.5384615384614,-77.46153846153847,23.76923076923077,-28.53846153846154
1340.0,-99668.76923076923,-1411.8076923076924,781.0,2048.6153846153848,-77.38461538461539,23.807692307692307,-28.615384615384617
1342.0,-99578.61538461539,-1441.8461538461538,781.0,2048.6923076923076,-77.3076923076923,23.846153846153847,-28.692307692307693
1344.0,-99488.46153846153,-1471.8846153846155,781.0,2048.769230769231,-77.23076923076923,23.884615384615383,-28.76923076923077
1346.0,-99398.30769230769,-1501.923076923077,781.0,2048.846153846154,-77.15384615384616,23.923076923076923,-28.846153846153847
1348.0,-99308.15384615384,-1531.9615384615386,781.0,2048.923076923077,-77.07692307692308,23.96153846153846,-28.923076923076923
1350.0,-99218.0,-1546.9807692307693,796.0192307692307,2049.0384615384614,-76.98076923076923,23.98076923076923,-29.01923076923077
1352.0,-99218.0,-1501.923076923077,841.0769230769231,2049.153846153846,-76.92307692307692,23.923076923076923,-29.076923076923077
1354.0,-99218.0,-1471.8846153846155,871.1153846153846,2049.230769230769,-76.88461538461539,23.884615384615383,-29.115384615384617
1356.0,-99218.0,-1441.8461538461538,901.1538461538462,2049.3076923076924,-76.84615384615384,23.846153846153847,-29.153846153846153
1358.0,-99218.0,-1411.8076923076924,931.1923076923077,2049.3846153846152,-76.8076923076923,23.807692307692307,-29.192307692307693
1360.0,-99218.0,-1381.7692307692307,961.2307692307693,2049.4615384615386,-76.76923076923077,23.76923076923077,-29.23076923076923
1362.0,-99218.0,-1351.7307692307693,991.2692307692307,2049.5384615384614,-76.73076923076923,23.73076923076923,-29.26923076923077
1364.0,-99218.0,-1321.6923076923076,1021.3076923076924,2049.6153846153848,-76.6923076923077,23.692307692307693,-29.307692307692307
1366.0,-99218.0,-1291.6538461538462,1051.3461538461538,2049.6923076923076,-76.65384615384616,23.653846153846153,-29.346153846153847
1368.0,-99218.0,-1261.6153846153845,1081.3846153846155,2049.769230769231,-76.61538461538461,23.615384615384617,-29.384615384615383
1370.0,-99218.0,-1231.576923076923,1111.423076923077,2049.846153846154,-76.57692307692308,23.576923076923077,-29.423076923076923
1372.0,-99218.0,-1201.5384615384614,1141.4615384615386,2049.923076923077,-76.53846153846153,23.53846153846154,-29.46153846153846
1374.0,-99218.0,-1171.5,1171.5,2050.0,-76.5,23.5,-29.5
1376.0,-99218.0,-1141.4615384615386,1201.5384615384614,2050.076923076923,-76.46153846153847,23.46153846153846,-29.53846153846154
1378.0,-99218.0,-1111.423076923077,1231.576923076923,2050.153846153846,-76.42307692307692,23.423076923076923,-29.576923076923077
1380.0,-99218.0,-1081.3846153846152,1261.6153846153848,2050.230769230769,-76.38461538461539,23.384615384615383,-29.615384615384617
1382.0,-99218.0,-1051.3461538461538,1291.6538461538462,2050.3076923076924,-76.34615384615384,23.346153846153847,-29.653846153846153
1384.0,-99218.0,-1021.3076923076923,1321.6923076923076,2050.3846153846152,-76.3076923076923,23.307692307692307,-29.692307692307693
1386.0,-99218.0,-991.2692307692307,1351.7307692307693,2050.4615384615386,-76.26923076923077,23.26923076923077,-29.73076923076923
1388.0,-99218.0,-961.2307692307692,1381.769230769231,2050.5384615384614,-76.23076923076923,23.23076923076923,-29.76923076923077
1390.0,-99218.0,-931.1923076923076,1411.8076923076924,2050.6153846153848,-76.1923076923077,23.192307692307693,-29.807692307692307
1392.0,-99218.0,-901.1538461538461,1441.8461538461538,2050.6923076923076,-76.15384615384616,23.153846153846153,-29.846153846153847
1394.0,-99218.0,-871.1153846153845,1471.8846153846155,2050.769230769231,-76.11538461538461,23.115384615384617,-29.884615384615383
1396.0,-99218.0,-841.0769230769231,1501.923076923077,2050.846153846154,-76.07692307692308,23.076923076923077,-29.923076923076923
1398.0,-99218.0,-811.0384615384615,1531.9615384615386,2050.923076923077,-76.03846153846153,23.03846153846154,-29.96153846153846
1400.0,-99202.98076923077,-765.9807692307693,1577.0192307692307,2050.8846153846152,-75.92307692307692,22.98076923076923,-30.0
1402.0,-99157.92307692308,-720.9230769230769,1622.076923076923,2050.5384615384614,-75.6923076923077,22.923076923076923,-30.0
1404.0,-99127.88461538461,-690.8846153846154,1652.1153846153845,2050.3076923076924,-75.53846153846153,22.884615384615383,-30.0
1406.0,-99097.84615384616,-660.8461538461538,1682.1538461538462,2050.076923076923,-75.38461538461539,22.846153846153847,-30.0
1408.0,-99067.80769230769,-630.8076923076923,1712.1923076923076,2049.846153846154,-75.23076923076923,22.807692307692307,-30.0
1410.0,-99037.76923076923,-600.7692307692307,1742.2307692307693,2049.6153846153848,-75.07692307692308,22.76923076923077,-30.0
1412.0,-99007.73076923077,-570.7307692307693,1772.2692307692307,2049.3846153846152,-74.92307692307692,22.73076923076923,-30.0
1414.0,-98977.69230769231,-540.6923076923076,1802.3076923076924,2049.153846153846,-74.76923076923077,22.692307692307693,-30.0
1416.0,-98947.65384615384,-510.65384615384613,1832.3461538461538,2048.923076923077,-74.61538461538461,22.653846153846153,-30.0
1418.0,-98917.61538461539,-480.6153846153846,1862.3846153846155,2048.6923076923076,-74.46153846153847,22.615384615384617,-30.0
1420.0,-98887.57692307692,-450.57692307692304,1892.423076923077,2048.4615384615386,-74.3076923076923,22.576923076923077,-30.0
1422.0,-98857.53846153847,-420.53846153846155,1922.4615384615386,2048.230769230769,-74.15384615384616,22.53846153846154,-30.0
1424.0,-98827.5,-390.5,1952.5,2048.0,-74.0,22.5,-30.0
1426.0,-98797.46153846153,-360.46153846153845,1982.5384615384614,2047.7692307692307,-73.84615384615384,22.46153846153846,-30.0
1428.0,-98767.42307692308,-330.4230769230769,2012.576923076923,2047.5384615384614,-73.6923076923077,22.423076923076923,-30.0
1430.0,-98737.38461538461,-300.38461538461536,2042.6153846153848,2047.3076923076924,-73.53846153846153,22.384615384615383,-30.0
1432.0,-98707.34615384616,-270.3461538461538,2072.653846153846,2047.076923076923,-73.38461538461539,22.346153846153847,-30.0
1434.0,-98677.30769230769,-240.30769230769226,2102.6923076923076,2046.8461538461538,-73.23076923076923,22.307692307692307,-30.0
1436.0,-98647.26923076923,-210.26923076923072,2132.7307692307695,2046.6153846153845,-73.07692307692308,22.26923076923077,-30.0
1438.0,-98617.23076923077,-180.23076923076917,2162.769230769231,2046.3846153846155,-72.92307692307692,22.23076923076923,-30.0
1440.0,-98587.19230769231,-150.19230769230762,2192.8076923076924,2046.1538461538462,-72.76923076923077,22.192307692307693,-30.0
1442.0,-98557.15384615384,-120.15384615384608,2222.846153846154,2045.923076923077,-72.61538461538461,22.153846153846153,-30.0
1444.0,-98527.11538461539,-90.11538461538453,2252.8846153846152,2045.6923076923076,-72.46153846153847,22.115384615384617,-30.0
1446.0,-98497.07692307692,-60.076923076923094,2282.923076923077,2045.4615384615386,-72.3076923076923,22.076923076923077,-30.0
1448.0,-98467.03846153847,-30.038461538461547,2312.9615384615386,2045.2307692307693,-72.15384615384616,22.03846153846154,-30.0
1450.0,-98437.0,-15.01923076923077,2312.9615384615386,2045.1346153846152,-71.92307692307692,21.98076923076923,-30.01923076923077
1452.0,-98437.0,-60.07692307692308,2222.846153846154,2045.5384615384614,-71.6923076923077,21.923076923076923,-30.076923076923077
1454.0,-98437.0,-90.11538461538461,2162.769230769231,2045.8076923076924,-71.53846153846153,21.884615384615383,-30.115384615384617
1456.0,-98437.0,-120.15384615384616,2102.6923076923076,2046.076923076923,-71.38461538461539,21.846153846153847,-30.153846153846153
1458.0,-98437.0,-150.1923076923077,2042.6153846153845,2046.3461538461538,-71.23076923076923,21.807692307692307,-30.192307692307693
1460.0,-98437.0,-180.23076923076923,1982.5384615384614,2046.6153846153845,-71.07692307692308,21.76923076923077,-30.23076923076923
1462.0,-98437.0,-210.26923076923077,1922.4615384615386,2046.8846153846155,-70.92307692307692,21.73076923076923,-30.26923076923077
1464.0,-98437.0,-240.30769230769232,1862.3846153846152,2047.1538461538462,-70.76923076923077,21.692307692307693,-30.307692307692307
1466.0,-98437.0,-270.34615384615387,1802.3076923076924,2047.423076923077,-70.61538461538461,21.653846153846153,-30.346153846153847
1468.0,-98437.0,-300.3846153846154,1742.230769230769,2047.6923076923076,-70.46153846153847,21.615384615384617,-30.384615384615383
1470.0,-98437.0,-330.42307692307696,1682.1538461538462,2047.9615384615386,-70.3076923076923,21.576923076923077,-30.423076923076923
1472.0,-98437.0,-360.46153846153845,1622.076923076923,2048.230769230769,-70.15384615384616,21.53846153846154,-30.46153846153846
1474.0,-98437.0,-390.5,1562.0,2048.5,-70.0,21.5,-30.5
1476.0,-98437.0,-420.53846153846155,1501.923076923077,2048.769230769231,-69.84615384615384,21.46153846153846,-30.53846153846154
1478.0,-98437.0,-450.5769230769231,1441.8461538461538,2049.0384615384614,-69.6923076923077,21.423076923076923,-30.576923076923077
1480.0,-98437.0,-480.61538461538464,1381.7692307692307,2049.3076923076924,-69.53846153846153,21.384615384615383,-30.615384615384617
1482.0,-98437.0,-510.6538461538462,1321.6923076923076,2049.576923076923,-69.38461538461539,21.346153846153847,-30.653846153846153
1484.0,-98437.0,-540.6923076923077,1261.6153846153845,2049.846153846154,-69.23076923076923,21.307692307692307,-30.692307692307693
1486.0,-98437.0,-570.7307692307693,1201.5384615384614,2050.1153846153848,-69.07692307692308,21.26923076923077,-30.73076923076923
1488.0,-98437.0,-600.7692307692308,1141.4615384615383,2050.3846153846152,-68.92307692307692,21.23076923076923,-30.76923076923077
1490.0,-98437.0,-630.8076923076924,1081.3846153846152,2050.653846153846,-68.76923076923077,21.192307692307693,-30.807692307692307
1492.0,-98437.0,-660.8461538461539,1021.3076923076922,2050.923076923077,-68.61538461538461,21.153846153846153,-30.846153846153847
1494.0,-98437.0,-690.8846153846155,961.230769230769,2051.1923076923076,-68.46153846153847,21.115384615384617,-30.884615384615383
1496.0,-98437.0,-720.9230769230769,901.1538461538462,2051.4615384615386,-68.3076923076923,21.076923076923077,-30.923076923076923
1498.0,-98437.0,-750.9615384615385,841.0769230769231,2051.730769230769,-68.15384615384616,21.03846153846154,-30.96153846153846
1500.0,-98421.98076923077,-781.0,826.0769230769231,2052.0192307692305,-67.88461538461539,20.96153846153846,-31.0
1502.0,-98376.92307692308,-781.0,961.3076923076924,2052.076923076923,-67.53846153846153,20.846153846153847,-31.0
1504.0,-98346.88461538461,-781.0,1051.4615384615386,2052.1153846153848,-67.3076923076923,20.76923076923077,-31.0
1506.0,-98316.84615384616,-781.0,1141.6153846153848,2052.153846153846,-67.07692307692308,20.692307692307693,-31.0
1508.0,-98286.80769230769,-781.0,1231.769230769231,2052.1923076923076,-66.84615384615384,20.615384615384617,-31.0
1510.0,-98256.76923076923,-781.0,1321.923076923077,2052.230769230769,-66.61538461538461,20.53846153846154,-31.0
1512.0,-98226.73076923077,-781.0,1412.076923076923,2052.269230769231,-66.38461538461539,20.46153846153846,-31.0
1514.0,-98196.69230769231,-781.0,1502.2307692307693,2052.3076923076924,-66.15384615384616,20.384615384615383,-31.0
1516.0,-98166.65384615384,-781.0,1592.3846153846155,2052.346153846154,-65.92307692307692,20.307692307692307,-31.0
1518.0,-98136.61538461539,-781.0,1682.5384615384617,2052.3846153846152,-65.6923076923077,20.23076923076923,-31.0
1520.0,-98106.57692307692,-781.0,1772.6923076923076,2052.423076923077,-65.46153846153847,20.153846153846153,-31.0
1522.0,-98076.53846153847,-781.0,1862.8461538461538,2052.4615384615386,-65.23076923076923,20.076923076923077,-31.0
1524.0,-98046.5,-781.0,1953.0,2052.5,-65.0,20.0,-31.0
1526.0,-98016.46153846153,-781.0,2043.1538461538462,2052.5384615384614,-64.76923076923077,19.923076923076923,-31.0
1528.0,-97986.42307692308,-781.0,2133.3076923076924,2052.576923076923,-64.53846153846153,19.846153846153847,-31.0
1530.0,-97956.38461538461,-781.0,2223.4615384615386,2052.6153846153848,-64.3076923076923,19.76923076923077,-31.0
1532.0,-97926.34615384616,-781.0,2313.6153846153848,2052.653846153846,-64.07692307692308,19.692307692307693,-31.0
1534.0,-97896.30769230769,-781.0,2403.769230769231,2052.6923076923076,-63.84615384615385,19.615384615384617,-31.0
1536.0,-97866.26923076923,-781.0,2493.923076923077,2052.730769230769,-63.61538461538461,19.53846153846154,-31.0
1538.0,-97836.23076923077,-781.0,2584.0769230769233,2052.769230769231,-63.38461538461539,19.46153846153846,-31.0
1540.0,-97806.19230769231,-781.0,2674.2307692307695,2052.8076923076924,-63.15384615384615,19.384615384615383,-31.0
1542.0,-97776.15384615384,-781.0,2764.3846153846152,2052.846153846154,-62.92307692307692,19.307692307692307,-31.0
1544.0,-97746.11538461539,-781.0,2854.538461538462,2052.8846153846152,-62.69230769230769,19.23076923076923,-31.0
1546.0,-97716.07692307692,-781.0,2944.6923076923076,2052.923076923077,-62.46153846153846,19.153846153846153,-31.0
1548.0,-97686.03846153847,-781.0,3034.846153846154,2052.9615384615386,-62.23076923076923,19.076923076923077,-31.0
1550.0,-97671.01923076923,-781.0,3125.0,2053.076923076923,-61.90384615384615,19.0,-31.0
1552.0,-97716.07692307692,-781.0,3125.0,2053.3076923076924,-61.61538461538461,19.0,-31.0
1554.0,-97746.11538461539,-781.0,3125.0,2053.4615384615386,-61.42307692307692,19.0,-31.0
1556.0,-97776.15384615384,-781.0,3125.0,2053.6153846153848,-61.23076923076923,19.0,-31.0
1558.0,-97806.19230769231,-781.0,3125.0,2053.769230769231,-61.03846153846154,19.0,-31.0
1560.0,-97836.23076923077,-781.0,3125.0,2053.923076923077,-60.84615384615385,19.0,-31.0
1562.0,-97866.26923076923,-781.0,3125.0,2054.076923076923,-60.65384615384615,19.0,-31.0
1564.0,-97896.30769230769,-781.0,3125.0,2054.230769230769,-60.46153846153846,19.0,-31.0
1566.0,-97926.34615384616,-781.0,3125.0,2054.3846153846152,-60.26923076923077,19.0,-31.0
1568.0,-97956.38461538461,-781.0,3125.0,2054.5384615384614,-60.07692307692308,19.0,-31.0
1570.0,-97986.42307692308,-781.0,3125.0,2054.6923076923076,-59.88461538461539,19.0,-31.0
1572.0,-98016.46153846153,-781.0,3125.0,2054.846153846154,-59.69230769230769,19.0,-31.0
1574.0,-98046.5,-781.0,3125.0,2055.0,-59.5,19.0,-31.0
1576.0,-98076.53846153847,-781.0,3125.0,2055.153846153846,-59.30769230769231,19.0,-31.0
1578.0,-98106.57692307692,-781.0,3125.0,2055.3076923076924,-59.11538461538461,19.0,-31.0
1580.0,-98136.61538461539,-781.0,3125.0,2055.4615384615386,-58.92307692307692,19.0,-31.0
1582.0,-98166.65384615384,-781.0,3125.0,2055.6153846153848,-58.73076923076923,19.0,-31.0
1584.0,-98196.69230769231,-781.0,3125.0,2055.769230769231,-58.53846153846154,19.0,-31.0
1586.0,-98226.73076923077,-781.0,3125.0,2055.923076923077,-58.34615384615385,19.0,-31.0
1588.0,-98256.76923076923,-781.0,3125.0,2056.076923076923,-58.15384615384615,19.0,-31.0
1590.0,-98286.80769230769,-781.0,3125.0,2056.230769230769,-57.96153846153846,19.0,-31.0
1592.0,-98316.84615384616,-781.0,3125.0,2056.3846153846152,-57.76923076923077,19.0,-31.0
1594.0,-98346.88461538461,-781.0,3125.0,2056.5384615384614,-57.57692307692308,19.0,-31.0
1596.0,-98376.92307692308,-781.0,3125.0,2056.6923076923076,-57.38461538461539,19.0,-31.0
1598.0,-98406.96153846153,-781.0,3125.0,2056.846153846154,-57.19230769230769,19.0,-31.0
1600.0,-98421.98076923077,-781.0,3109.9615384615386,2057.0384615384614,-56.88461538461539,19.0,-31.01923076923077
1602.0,-98376.92307692308,-781.0,3064.846153846154,2057.153846153846,-56.53846153846154,19.0,-31.076923076923077
1604.0,-98346.88461538461,-781.0,3034.769230769231,2057.230769230769,-56.30769230769231,19.0,-31.115384615384617
1606.0,-98316.84615384616,-781.0,3004.6923076923076,2057.3076923076924,-56.07692307692308,19.0,-31.153846153846153
1608.0,-98286.80769230769,-781.0,2974.6153846153848,2057.3846153846152,-55.84615384615385,19.0,-31.192307692307693
1610.0,-98256.76923076923,-781.0,2944.5384615384614,2057.4615384615386,-55.61538461538461,19.0,-31.23076923076923
1612.0,-98226.73076923077,-781.0,2914.4615384615386,2057.5384615384614,-55.38461538461539,19.0,-31.26923076923077
1614.0,-98196.69230769231,-781.0,2884.3846153846152,2057.6153846153848,-55.15384615384615,19.0,-31.307692307692307
1616.0,-98166.65384615384,-781.0,2854.3076923076924,2057.6923076923076,-54.92307692307692,19.0,-31.346153846153847
1618.0,-98136.61538461539,-781.0,2824.230769230769,2057.769230769231,-54.69230769230769,19.0,-31.384615384615383
1620.0,-98106.57692307692,-781.0,2794.153846153846,2057.846153846154,-54.46153846153846,19.0,-31.423076923076923
1622.0,-98076.53846153847,-781.0,2764.076923076923,2057.923076923077,-54.23076923076923,19.0,-31.46153846153846
1624.0,-98046.5,-781.0,2734.0,2058.0,-54.0,19.0,-31.5
1626.0,-98016.46153846153,-781.0,2703.923076923077,2058.076923076923,-53.76923076923077,19.0,-31.53846153846154
1628.0,-97986.42307692308,-781.0,2673.846153846154,2058.153846153846,-53.53846153846154,19.0,-31.576923076923077
1630.0,-97956.38461538461,-781.0,2643.769230769231,2058.230769230769,-53.30769230769231,19.0,-31.615384615384617
1632.0,-97926.34615384616,-781.0,2613.6923076923076,2058.3076923076924,-53.07692307692308,19.0,-31.653846153846153
1634.0,-97896.30769230769,-781.0,2583.6153846153848,2058.3846153846152,-52.84615384615385,19.0,-31.692307692307693
1636.0,-97866.26923076923,-781.0,2553.5384615384614,2058.4615384615386,-52.61538461538461,19.0,-31.73076923076923
1638.0,-97836.23076923077,-781.0,2523.4615384615386,2058.5384615384614,-52.38461538461539,19.0,-31.76923076923077
1640.0,-97806.19230769231,-781.0,2493.3846153846152,2058.6153846153848,-52.15384615384615,19.0,-31.807692307692307
1642.0,-97776.15384615384,-781.0,2463.3076923076924,2058.6923076923076,-51.92307692307692,19.0,-31.846153846153847
1644.0,-97746.11538461539,-781.0,2433.2307692307695,2058.769230769231,-51.69230769230769,19.0,-31.884615384615383
1646.0,-97716.07692307692,-781.0,2403.153846153846,2058.846153846154,-51.46153846153846,19.0,-31.923076923076923
1648.0,-97686.03846153847,-781.0,2373.076923076923,2058.923076923077,-51.23076923076923,19.0,-31.96153846153846
1650.0,-97671.01923076923,-796.0192307692307,2327.9807692307695,2058.9423076923076,-50.88461538461539,18.98076923076923,-32.0
1652.0,-97716.07692307692,-841.0769230769231,2282.923076923077,2058.769230769231,-50.53846153846154,18.923076923076923,-32.0
1654.0,-97746.11538461539,-871.1153846153846,2252.8846153846152,2058.653846153846,-50.30769230769231,18.884615384615383,-32.0
1656.0,-97776.15384615384,-901.1538461538462,2222.846153846154,2058.5384615384614,-50.07692307692308,18.846153846153847,-32.0
1658.0,-97806.19230769231,-931.1923076923077,2192.8076923076924,2058.423076923077,-49.84615384615385,18.807692307692307,-32.0
1660.0,-97836.23076923077,-961.2307692307693,2162.769230769231,2058.3076923076924,-49.61538461538461,18.76923076923077,-32.0
1662.0,-97866.26923076923,-991.2692307692307,2132.730769230769,2058.1923076923076,-49.38461538461539,18.73076923076923,-32.0
1664.0,-97896.30769230769,-1021.3076923076924,2102.6923076923076,2058.076923076923,-49.15384615384615,18.692307692307693,-32.0
1666.0,-97926.34615384616,-1051.3461538461538,2072.653846153846,2057.9615384615386,-48.92307692307692,18.653846153846153,-32.0
1668.0,-97956.38461538461,-1081.3846153846155,2042.6153846153845,2057.846153846154,-48.69230769230769,18.615384615384617,-32.0
1670.0,-97986.42307692308,-1111.423076923077,2012.576923076923,2057.730769230769,-48.46153846153846,18.576923076923077,-32.0
1672.0,-98016.46153846153,-1141.4615384615386,1982.5384615384614,2057.6153846153848,-48.23076923076923,18.53846153846154,-32.0
1674.0,-98046.5,-1171.5,1952.5,2057.5,-48.0,18.5,-32.0
1676.0,-98076.53846153847,-1201.5384615384614,1922.4615384615386,2057.3846153846152,-47.76923076923077,18.46153846153846,-32.0
1678.0,-98106.57692307692,-1231.576923076923,1892.423076923077,2057.269230769231,-47.53846153846154,18.423076923076923,-32.0
1680.0,-98136.61538461539,-1261.6153846153848,1862.3846153846152,2057.153846153846,-47.30769230769231,18.384615384615383,-32.0
1682.0,-98166.65384615384,-1291.6538461538462,1832.3461538461538,2057.0384615384614,-47.07692307692308,18.346153846153847,-32.0
1684.0,-98196.69230769231,-1321.6923076923076,1802.3076923076924,2056.923076923077,-46.84615384615385,18.307692307692307,-32.0
1686.0,-98226.73076923077,-1351.7307692307693,1772.2692307692307,2056.8076923076924,-46.61538461538461,18.26923076923077,-32.0
1688.0,-98256.76923076923,-1381.769230769231,1742.230769230769,2056.6923076923076,-46.38461538461539,18.23076923076923,-32.0
1690.0,-98286.80769230769,-1411.8076923076924,1712.1923076923076,2056.576923076923,-46.15384615384615,18.192307692307693,-32.0
1692.0,-98316.84615384616,-1441.8461538461538,1682.1538461538462,2056.4615384615386,-45.92307692307692,18.153846153846153,-32.0
1694.0,-98346.88461538461,-1471.8846153846155,1652.1153846153845,2056.346153846154,-45.69230769230769,18.115384615384617,-32.0
1696.0,-98376.92307692308,-1501.923076923077,1622.076923076923,2056.230769230769,-45.46153846153846,18.076923076923077,-32.0
1698.0,-98406.96153846153,-1531.9615384615386,1592.0384615384614,2056.1153846153848,-45.23076923076923,18.03846153846154,-32.0
1700.0,-98437.0,-1546.9807692307693,1546.9807692307693,2055.8653846153848,-44.92307692307692,18.01923076923077,-32.0
1702.0,-98437.0,-1501.923076923077,1501.923076923077,2055.4615384615386,-44.69230769230769,18.076923076923077,-32.0
1704.0,-98437.0,-1471.8846153846155,1471.8846153846155,2055.1923076923076,-44.53846153846154,18.115384615384617,-32.0
1706.0,-98437.0,-1441.8461538461538,1441.8461538461538,2054.923076923077,-44.38461538461539,18.153846153846153,-32.0
1708.0,-98437.0,-1411.8076923076924,1411.8076923076924,2054.653846153846,-44.23076923076923,18.192307692307693,-32.0
1710.0,-98437.0,-1381.7692307692307,1381.7692307692307,2054.3846153846152,-44.07692307692308,18.23076923076923,-32.0
1712.0,-98437.0,-1351.7307692307693,1351.7307692307693,2054.1153846153848,-43.92307692307692,18.26923076923077,-32.0
1714.0,-98437.0,-1321.6923076923076,1321.6923076923076,2053.846153846154,-43.76923076923077,18.307692307692307,-32.0
1716.0,-98437.0,-1291.6538461538462,1291.6538461538462,2053.576923076923,-43.61538461538461,18.346153846153847,-32.0
1718.0,-98437.0,-1261.6153846153845,1261.6153846153845,2053.3076923076924,-43.46153846153846,18.384615384615383,-32.0
1720.0,-98437.0,-1231.576923076923,1231.576923076923,2053.0384615384614,-43.30769230769231,18.423076923076923,-32.0
1722.0,-98437.0,-1201.5384615384614,1201.5384615384614,2052.769230769231,-43.15384615384615,18.46153846153846,-32.0
1724.0,-98437.0,-1171.5,1171.5,2052.5,-43.0,18.5,-32.0
1726.0,-98437.0,-1141.4615384615386,1141.4615384615386,2052.230769230769,-42.84615384615385,18.53846153846154,-32.0
1728.0,-98437.0,-1111.423076923077,1111.423076923077,2051.9615384615386,-42.69230769230769,18.576923076923077,-32.0
1730.0,-98437.0,-1081.3846153846152,1081.3846153846152,2051.6923076923076,-42.53846153846154,18.615384615384617,-32.0
1732.0,-98437.0,-1051.3461538461538,1051.3461538461538,2051.423076923077,-42.38461538461539,18.653846153846153,-32.0
1734.0,-98437.0,-1021.3076923076923,1021.3076923076923,2051.153846153846,-42.23076923076923,18.692307692307693,-32.0
1736.0,-98437.0,-991.2692307692307,991.2692307692307,2050.8846153846152,-42.07692307692308,18.73076923076923,-32.0
1738.0,-98437.0,-961.2307692307692,961.2307692307692,2050.6153846153848,-41.92307692307692,18.76923076923077,-32.0
1740.0,-98437.0,-931.1923076923076,931.1923076923076,2050.346153846154,-41.76923076923077,18.807692307692307,-32.0
1742.0,-98437.0,-901.1538461538461,901.1538461538461,2050.076923076923,-41.61538461538461,18.846153846153847,-32.0
1744.0,-98437.0,-871.1153846153845,871.1153846153845,2049.8076923076924,-41.46153846153846,18.884615384615383,-32.0
1746.0,-98437.0,-841.0769230769231,841.0769230769231,2049.5384615384614,-41.30769230769231,18.923076923076923,-32.0
1748.0,-98437.0,-811.0384615384615,811.0384615384615,2049.269230769231,-41.15384615384615,18.96153846153846,-32.0
1750.0,-98467.05769230769,-765.9807692307693,796.0192307692307,2049.076923076923,-40.94230769230769,19.03846153846154,-32.0
1752.0,-98557.23076923077,-720.9230769230769,841.0769230769231,2049.3076923076924,-40.76923076923077,19.153846153846153,-32.0
1754.0,-98617.34615384616,-690.8846153846154,871.1153846153846,2049.4615384615386,-40.65384615384615,19.23076923076923,-32.0
1756.0,-98677.46153846153,-660.8461538461538,901.1538461538462,2049.6153846153848,-40.53846153846154,19.307692307692307,-32.0
1758.0,-98737.57692307692,-630.8076923076923,931.1923076923077,2049.769230769231,-40.42307692307692,19.384615384615383,-32.0
1760.0,-98797.69230769231,-600.7692307692307,961.2307692307693,2049.923076923077,-40.30769230769231,19.46153846153846,-32.0
1762.0,-98857.80769230769,-570.7307692307693,991.2692307692307,2050.076923076923,-40.19230769230769,19.53846153846154,-32.0
1764.0,-98917.92307692308,-540.6923076923076,1021.3076923076924,2050.230769230769,-40.07692307692308,19.615384615384617,-32.0
1766.0,-98978.03846153847,-510.65384615384613,1051.3461538461538,2050.3846153846152,-39.96153846153846,19.692307692307693,-32.0
1768.0,-99038.15384615384,-480.6153846153846,1081.3846153846155,2050.5384615384614,-39.84615384615385,19.76923076923077,-32.0
1770.0,-99098.26923076923,-450.57692307692304,1111.423076923077,2050.6923076923076,-39.73076923076923,19.846153846153847,-32.0
1772.0,-99158.38461538461,-420.53846153846155,1141.4615384615386,2050.846153846154,-39.61538461538461,19.923076923076923,-32.0
1774.0,-99218.5,-390.5,1171.5,2051.0,-39.5,20.0,-32.0
1776.0,-99278.61538461539,-360.46153846153845,1201.5384615384614,2051.153846153846,-39.38461538461539,20.076923076923077,-32.0
1778.0,-99338.73076923077,-330.4230769230769,1231.576923076923,2051.3076923076924,-39.26923076923077,20.153846153846153,-32.0
1780.0,-99398.84615384616,-300.38461538461536,1261.6153846153848,2051.4615384615386,-39.15384615384615,20.23076923076923,-32.0
1782.0,-99458.96153846153,-270.3461538461538,1291.6538461538462,2051.6153846153848,-39.03846153846154,20.307692307692307,-32.0
1784.0,-99519.07692307692,-240.30769230769226,1321.6923076923076,2051.769230769231,-38.92307692307692,20.384615384615383,-32.0
1786.0,-99579.19230769231,-210.26923076923072,1351.7307692307693,2051.923076923077,-38.80769230769231,20.46153846153846,-32.0
1788.0,-99639.30769230769,-180.23076923076917,1381.769230769231,2052.076923076923,-38.69230769230769,20.53846153846154,-32.0
1790.0,-99699.42307692308,-150.19230769230762,1411.8076923076924,2052.230769230769,-38.57692307692308,20.615384615384617,-32.0
1792.0,-99759.53846153847,-120.15384615384608,1441.8461538461538,2052.3846153846152,-38.46153846153846,20.692307692307693,-32.0
1794.0,-99819.65384615384,-90.11538461538453,1471.8846153846155,2052.5384615384614,-38.34615384615385,20.76923076923077,-32.0
1796.0,-99879.76923076923,-60.076923076923094,1501.923076923077,2052.6923076923076,-38.23076923076923,20.846153846153847,-32.0
1798.0,-99939.88461538461,-30.038461538461547,1531.9615384615386,2052.846153846154,-38.11538461538461,20.923076923076923,-32.0
1800.0,-100000.0,-30.03846153846154,1516.9423076923076,2053.0576923076924,-37.96153846153846,21.03846153846154,-32.0
1802.0,-100000.0,-120.15384615384616,1381.7692307692307,2053.230769230769,-37.84615384615385,21.153846153846153,-32.0
1804.0,-100000.0,-180.23076923076923,1291.6538461538462,2053.346153846154,-37.76923076923077,21.23076923076923,-32.0
1806.0,-100000.0,-240.30769230769232,1201.5384615384614,2053.4615384615386,-37.69230769230769,21.307692307692307,-32.0
1808.0,-100000.0,-300.3846153846154,1111.423076923077,2053.576923076923,-37.61538461538461,21.384615384615383,-32.0
1810.0,-100000.0,-360.46153846153845,1021.3076923076924,2053.6923076923076,-37.53846153846154,21.46153846153846,-32.0
1812.0,-100000.0,-420.53846153846155,931.1923076923077,2053.8076923076924,-37.46153846153846,21.53846153846154,-32.0
1814.0,-100000.0,-480.61538461538464,841.0769230769231,2053.923076923077,-37.38461538461539,21.615384615384617,-32.0
1816.0,-100000.0,-540.6923076923077,750.9615384615385,2054.0384615384614,-37.30769230769231,21.692307692307693,-32.0
1818.0,-100000.0,-600.7692307692308,660.8461538461538,2054.153846153846,-37.23076923076923,21.76923076923077,-32.0
1820.0,-100000.0,-660.8461538461539,570.7307692307693,2054.269230769231,-37.15384615384615,21.846153846153847,-32.0
1822.0,-100000.0,-720.9230769230769,480.61538461538476,2054.3846153846152,-37.07692307692308,21.923076923076923,-32.0
1824.0,-100000.0,-781.0,390.5,2054.5,-37.0,22.0,-32.0
1826.0,-100000.0,-841.0769230769231,300.3846153846155,2054.6153846153848,-36.92307692307692,22.076923076923077,-32.0
1828.0,-100000.0,-901.1538461538462,210.26923076923072,2054.730769230769,-36.84615384615385,22.153846153846153,-32.0
1830.0,-100000.0,-961.2307692307693,120.15384615384619,2054.846153846154,-36.76923076923077,22.23076923076923,-32.0
1832.0,-100000.0,-1021.3076923076924,30.03846153846166,2054.9615384615386,-36.69230769230769,22.307692307692307,-32.0
1834.0,-100000.0,-1081.3846153846155,-60.076923076923094,2055.076923076923,-36.61538461538461,22.384615384615383,-32.0
1836.0,-100000.0,-1141.4615384615386,-150.19230769230762,2055.1923076923076,-36.53846153846154,22.46153846153846,-32.0
1838.0,-100000.0,-1201.5384615384617,-240.30769230769238,2055.3076923076924,-36.46153846153846,22.53846153846154,-32.0
1840.0,-100000.0,-1261.6153846153848,-330.4230769230769,2055.423076923077,-36.38461538461539,22.615384615384617,-32.0
1842.0,-100000.0,-1321.6923076923078,-420.53846153846143,2055.5384615384614,-36.30769230769231,22.692307692307693,-32.0
1844.0,-100000.0,-1381.769230769231,-510.6538461538462,2055.653846153846,-36.23076923076923,22.76923076923077,-32.0
1846.0,-100000.0,-1441.8461538461538,-600.7692307692305,2055.769230769231,-36.15384615384615,22.846153846153847,-32.0
1848.0,-100000.0,-1501.923076923077,-690.8846153846152,2055.8846153846152,-36.07692307692308,22.923076923076923,-32.0
1850.0,-100000.0,-1546.9807692307693,-781.0,2055.6153846153848,-35.980769230769226,23.057692307692307,-32.019230769230774
1852.0,-100000.0,-1501.923076923077,-781.0,2054.4615384615386,-35.92307692307692,23.23076923076923,-32.07692307692308
1854.0,-100000.0,-1471.8846153846155,-781.0,2053.6923076923076,-35.88461538461539,23.346153846153847,-32.11538461538461
1856.0,-100000.0,-1441.8461538461538,-781.0,2052.923076923077,-35.84615384615385,23.46153846153846,-32.15384615384615
1858.0,-100000.0,-1411.8076923076924,-781.0,2052.153846153846,-35.80769230769231,23.576923076923077,-32.19230769230769
1860.0,-100000.0,-1381.7692307692307,-781.0,2051.3846153846152,-35.76923076923077,23.692307692307693,-32.23076923076923
1862.0,-100000.0,-1351.7307692307693,-781.0,2050.6153846153848,-35.73076923076923,23.807692307692307,-32.26923076923077
1864.0,-100000.0,-1321.6923076923076,-781.0,2049.846153846154,-35.69230769230769,23.923076923076923,-32.30769230769231
1866.0,-100000.0,-1291.6538461538462,-781.0,2049.076923076923,-35.65384615384615,24.03846153846154,-32.34615384615385
1868.0,-100000.0,-1261.6153846153845,-781.0,2048.3076923076924,-35.61538461538461,24.153846153846153,-32.38461538461539
1870.0,-100000.0,-1231.576923076923,-781.0,2047.5384615384614,-35.57692307692308,24.26923076923077,-32.42307692307692
1872.0,-100000.0,-1201.5384615384614,-781.0,2046.7692307692307,-35.53846153846154,24.384615384615383,-32.46153846153846
1874.0,-100000.0,-1171.5,-781.0,2046.0,-35.5,24.5,-32.5
1876.0,-100000.0,-1141.4615384615386,-781.0,2045.2307692307693,-35.46153846153846,24.615384615384617,-32.53846153846154
1878.0,-100000.0,-1111.423076923077,-781.0,2044.4615384615386,-35.42307692307692,24.73076923076923,-32.57692307692308
1880.0,-100000.0,-1081.3846153846152,-781.0,2043.6923076923076,-35.38461538461539,24.846153846153847,-32.61538461538461
1882.0,-100000.0,-1051.3461538461538,-781.0,2042.923076923077,-35.34615384615385,24.96153846153846,-32.65384615384615
1884.0,-100000.0,-1021.3076923076923,-781.0,2042.1538461538462,-35.30769230769231,25.076923076923077,-32.69230769230769
1886.0,-100000.0,-991.2692307692307,-781.0,2041.3846153846155,-35.26923076923077,25.192307692307693,-32.73076923076923
1888.0,-100000.0,-961.2307692307692,-781.0,2040.6153846153845,-35.23076923076923,25.307692307692307,-32.76923076923077
1890.0,-100000.0,-931.1923076923076,-781.0,2039.8461538461538,-35.19230769230769,25.423076923076923,-32.80769230769231
1892.0,-100000.0,-901.1538461538461,-781.0,2039.076923076923,-35.15384615384615,25.53846153846154,-32.84615384615385
1894.0,-100000.0,-871.1153846153845,-781.0,2038.3076923076924,-35.11538461538461,25.653846153846153,-32.88461538461539
1896.0,-100000.0,-841.0769230769231,-781.0,2037.5384615384614,-35.07692307692308,25.76923076923077,-32.92307692307692
1898.0,-100000.0,-811.0384615384615,-781.0,2036.7692307692307,-35.03846153846154,25.884615384615383,-32.96153846153846
1900.0,-100015.01923076923,-781.0,-750.9615384615385,2036.076923076923,-35.019230769230774,26.01923076923077,-32.980769230769226
1902.0,-100060.07692307692,-781.0,-660.8461538461538,2036.3076923076924,-35.07692307692308,26.076923076923077,-32.92307692307692
1904.0,-100090.11538461539,-781.0,-600.7692307692307,2036.4615384615386,-35.11538461538461,26.115384615384617,-32.88461538461539
1906.0,-100120.15384615384,-781.0,-540.6923076923076,2036.6153846153845,-35.15384615384615,26.153846153846153,-32.84615384615385
1908.0,-100150.19230769231,-781.0,-480.6153846153846,2036.7692307692307,-35.19230769230769,26.192307692307693,-32.80769230769231
1910.0,-100180.23076923077,-781.0,-420.53846153846155,2036.923076923077,-35.23076923076923,26.23076923076923,-32.76923076923077
1912.0,-100210.26923076923,-781.0,-360.46153846153845,2037.076923076923,-35.26923076923077,26.26923076923077,-32.73076923076923
1914.0,-100240.30769230769,-781.0,-300.38461538461536,2037.2307692307693,-35.30769230769231,26.307692307692307,-32.69230769230769
1916.0,-100270.34615384616,-781.0,-240.30769230769226,2037.3846153846155,-35.34615384615385,26.346153846153847,-32.65384615384615
1918.0,-100300.38461538461,-781.0,-180.23076923076917,2037.5384615384614,-35.38461538461539,26.384615384615383,-32.61538461538461
1920.0,-100330.42307692308,-781.0,-120.15384615384608,2037.6923076923076,-35.42307692307692,26.423076923076923,-32.57692307692308
1922.0,-100360.46153846153,-781.0,-60.076923076923094,2037.8461538461538,-35.46153846153846,26.46153846153846,-32.53846153846154
1924.0,-100390.5,-781.0,0.0,2038.0,-35.5,26.5,-32.5
1926.0,-100420.53846153847,-781.0,60.076923076923094,2038.1538461538462,-35.53846153846154,26.53846153846154,-32.46153846153846
1928.0,-100450.57692307692,-781.0,120.15384615384619,2038.3076923076924,-35.57692307692308,26.576923076923077,-32.42307692307692
1930.0,-100480.61538461539,-781.0,180.23076923076928,2038.4615384615386,-35.61538461538461,26.615384615384617,-32.38461538461539
1932.0,-100510.65384615384,-781.0,240.30769230769238,2038.6153846153845,-35.65384615384615,26.653846153846153,-32.34615384615385
1934.0,-100540.69230769231,-781.0,300.3846153846155,2038.7692307692307,-35.69230769230769,26.692307692307693,-32.30769230769231
1936.0,-100570.73076923077,-781.0,360.46153846153857,2038.923076923077,-35.73076923076923,26.73076923076923,-32.26923076923077
1938.0,-100600.76923076923,-781.0,420.53846153846166,2039.076923076923,-35.76923076923077,26.76923076923077,-32.23076923076923
1940.0,-100630.80769230769,-781.0,480.61538461538476,2039.2307692307693,-35.80769230769231,26.807692307692307,-32.19230769230769
1942.0,-100660.84615384616,-781.0,540.6923076923078,2039.3846153846155,-35.84615384615385,26.846153846153847,-32.15384615384615
1944.0,-100690.88461538461,-781.0,600.769230769231,2039.5384615384614,-35.88461538461539,26.884615384615383,-32.11538461538461
1946.0,-100720.92307692308,-781.0,660.8461538461538,2039.6923076923076,-35.92307692307692,26.923076923076923,-32.07692307692308
1948.0,-100750.96153846153,-781.0,720.9230769230769,2039.8461538461538,-35.96153846153846,26.96153846153846,-32.03846153846154
1950.0,-100781.0,-796.0192307692307,750.9615384615385,2040.2115384615386,-36.019230769230774,27.01923076923077,-32.0
1952.0,-100781.0,-841.0769230769231,660.8461538461538,2040.8461538461538,-36.07692307692308,27.076923076923077,-32.0
1954.0,-100781.0,-871.1153846153846,600.7692307692307,2041.2692307692307,-36.11538461538461,27.115384615384617,-32.0
1956.0,-100781.0,-901.1538461538462,540.6923076923076,2041.6923076923076,-36.15384615384615,27.153846153846153,-32.0
1958.0,-100781.0,-931.1923076923077,480.6153846153846,2042.1153846153845,-36.19230769230769,27.192307692307693,-32.0
1960.0,-100781.0,-961.2307692307693,420.53846153846155,2042.5384615384614,-36.23076923076923,27.23076923076923,-32.0
1962.0,-100781.0,-991.2692307692307,360.46153846153845,2042.9615384615386,-36.26923076923077,27.26923076923077,-32.0
1964.0,-100781.0,-1021.3076923076924,300.38461538461536,2043.3846153846155,-36.30769230769231,27.307692307692307,-32.0
1966.0,-100781.0,-1051.3461538461538,240.30769230769226,2043.8076923076924,-36.34615384615385,27.346153846153847,-32.0
1968.0,-100781.0,-1081.3846153846155,180.23076923076917,2044.2307692307693,-36.38461538461539,27.384615384615383,-32.0
1970.0,-100781.0,-1111.423076923077,120.15384615384608,2044.6538461538462,-36.42307692307692,27.423076923076923,-32.0
1972.0,-100781.0,-1141.4615384615386,60.076923076923094,2045.076923076923,-36.46153846153846,27.46153846153846,-32.0
1974.0,-100781.0,-1171.5,0.0,2045.5,-36.5,27.5,-32.0
1976.0,-100781.0,-1201.5384615384614,-60.076923076923094,2045.923076923077,-36.53846153846154,27.53846153846154,-32.0
1978.0,-100781.0,-1231.576923076923,-120.15384615384619,2046.3461538461538,-36.57692307692308,27.576923076923077,-32.0
1980.0,-100781.0,-1261.6153846153848,-180.23076923076928,2046.7692307692307,-36.61538461538461,27.615384615384617,-32.0
1982.0,-100781.0,-1291.6538461538462,-240.30769230769238,2047.1923076923076,-36.65384615384615,27.653846153846153,-32.0
1984.0,-100781.0,-1321.6923076923076,-300.3846153846155,2047.6153846153845,-36.69230769230769,27.692307692307693,-32.0
1986.0,-100781.0,-1351.7307692307693,-360.46153846153857,2048.0384615384614,-36.73076923076923,27.73076923076923,-32.0
1988.0,-100781.0,-1381.769230769231,-420.53846153846166,2048.4615384615386,-36.76923076923077,27.76923076923077,-32.0
1990.0,-100781.0,-1411.8076923076924,-480.61538461538476,2048.8846153846152,-36.80769230769231,27.807692307692307,-32.0
1992.0,-100781.0,-1441.8461538461538,-540.6923076923078,2049.3076923076924,-36.84615384615385,27.846153846153847,-32.0
1994.0,-100781.0,-1471.8846153846155,-600.769230769231,2049.730769230769,-36.88461538461539,27.884615384615383,-32.0
1996.0,-100781.0,-1501.923076923077,-660.8461538461538,2050.153846153846,-36.92307692307692,27.923076923076923,-32.0
1998.0,-100781.0,-1531.9615384615386,-720.9230769230769,2050.576923076923,-36.96153846153846,27.96153846153846,-32.0
2000.0,-100765.98076923077,-1546.9807692307693,-765.9807692307693,2051.153846153846,-37.03846153846154,28.01923076923077,-32.0
2002.0,-100720.92307692308,-1501.923076923077,-720.9230769230769,2051.6153846153848,-37.15384615384615,28.076923076923077,-32.0
2004.0,-100690.88461538461,-1471.8846153846155,-690.8846153846154,2051.923076923077,-37.23076923076923,28.115384615384617,-32.0
2006.0,-100660.84615384616,-1441.8461538461538,-660.8461538461538,2052.230769230769,-37.30769230769231,28.153846153846153,-32.0
2008.0,-100630.80769230769,-1411.8076923076924,-630.8076923076923,2052.5384615384614,-37.38461538461539,28.192307692307693,-32.0
2010.0,-100600.76923076923,-1381.7692307692307,-600.7692307692307,2052.846153846154,-37.46153846153846,28.23076923076923,-32.0
2012.0,-100570.73076923077,-1351.7307692307693,-570.7307692307693,2053.153846153846,-37.53846153846154,28.26923076923077,-32.0
2014.0,-100540.69230769231,-1321.6923076923076,-540.6923076923076,2053.4615384615386,-37.61538461538461,28.307692307692307,-32.0
2016.0,-100510.65384615384,-1291.6538461538462,-510.65384615384613,2053.769230769231,-37.69230769230769,28.346153846153847,-32.0
2018.0,-100480.61538461539,-1261.6153846153845,-480.6153846153846,2054.076923076923,-37.76923076923077,28.384615384615383,-32.0
2020.0,-100450.57692307692,-1231.576923076923,-450.57692307692304,2054.3846153846152,-37.84615384615385,28.423076923076923,-32.0
2022.0,-100420.53846153847,-1201.5384615384614,-420.53846153846155,2054.6923076923076,-37.92307692307692,28.46153846153846,-32.0
2024.0,-100390.5,-1171.5,-390.5,2055.0,-38.0,28.5,-32.0
2026.0,-100360.46153846153,-1141.4615384615386,-360.46153846153845,2055.3076923076924,-38.07692307692308,28.53846153846154,-32.0
2028.0,-100330.42307692308,-1111.423076923077,-330.4230769230769,2055.6153846153848,-38.15384615384615,28.576923076923077,-32.0
2030.0,-100300.38461538461,-1081.3846153846152,-300.38461538461536,2055.923076923077,-38.23076923076923,28.615384615384617,-32.0
2032.0,-100270.34615384616,-1051.3461538461538,-270.3461538461538,2056.230769230769,-38.30769230769231,28.653846153846153,-32.0
2034.0,-100240.30769230769,-1021.3076923076923,-240.30769230769226,2056.5384615384614,-38.38461538461539,28.692307692307693,-32.0
2036.0,-100210.26923076923,-991.2692307692307,-210.26923076923072,2056.846153846154,-38.46153846153846,28.73076923076923,-32.0
2038.0,-100180.23076923077,-961.2307692307692,-180.23076923076917,2057.153846153846,-38.53846153846154,28.76923076923077,-32.0
2040.0,-100150.19230769231,-931.1923076923076,-150.19230769230762,2057.4615384615386,-38.61538461538461,28.807692307692307,-32.0
2042.0,-100120.15384615384,-901.1538461538461,-120.15384615384608,2057.769230769231,-38.69230769230769,28.846153846153847,-32.0
2044.0,-100090.11538461539,-871.1153846153845,-90.11538461538453,2058.076923076923,-38.76923076923077,28.884615384615383,-32.0
2046.0,-100060.07692307692,-841.0769230769231,-60.076923076923094,2058.3846153846152,-38.84615384615385,28.923076923076923,-32.0
2048.0,-100030.03846153847,-811.0384615384615,-30.038461538461547,2058.6923076923076,-38.92307692307692,28.96153846153846,-32.0
2050.0,-100000.0,-765.9807692307693,-15.01923076923077,2058.8076923076924,-39.03846153846154,29.0,-31.96153846153846
2052.0,-100000.0,-720.9230769230769,-60.07692307692308,2058.230769230769,-39.15384615384615,29.0,-31.846153846153847
2054.0,-100000.0,-690.8846153846154,-90.11538461538461,2057.846153846154,-39.23076923076923,29.0,-31.76923076923077
2056.0,-100000.0,-660.8461538461538,-120.15384615384616,2057.4615384615386,-39.30769230769231,29.0,-31.692307692307693
2058.0,-100000.0,-630.8076923076923,-150.1923076923077,2057.076923076923,-39.38461538461539,29.0,-31.615384615384617
2060.0,-100000.0,-600.7692307692307,-180.23076923076923,2056.6923076923076,-39.46153846153846,29.0,-31.53846153846154
2062.0,-100000.0,-570.7307692307693,-210.26923076923077,2056.3076923076924,-39.53846153846154,29.0,-31.46153846153846
2064.0,-100000.0,-540.6923076923076,-240.30769230769232,2055.923076923077,-39.61538461538461,29.0,-31.384615384615383
2066.0,-100000.0,-510.65384615384613,-270.34615384615387,2055.5384615384614,-39.69230769230769,29.0,-31.307692307692307
2068.0,-100000.0,-480.6153846153846,-300.3846153846154,2055.153846153846,-39.76923076923077,29.0,-31.23076923076923
2070.0,-100000.0,-450.57692307692304,-330.42307692307696,2054.769230769231,-39.84615384615385,29.0,-31.153846153846153
2072.0,-100000.0,-420.53846153846155,-360.46153846153845,2054.3846153846152,-39.92307692307692,29.0,-31.076923076923077
2074.0,-100000.0,-390.5,-390.5,2054.0,-40.0,29.0,-31.0
2076.0,-100000.0,-360.46153846153845,-420.53846153846155,2053.6153846153848,-40.07692307692308,29.0,-30.923076923076923
2078.0,-100000.0,-330.4230769230769,-450.5769230769231,2053.230769230769,-40.15384615384615,29.0,-30.846153846153847
2080.0,-100000.0,-300.38461538461536,-480.61538461538464,2052.846153846154,-40.23076923076923,29.0,-30.76923076923077
2082.0,-100000.0,-270.3461538461538,-510.6538461538462,2052.4615384615386,-40.30769230769231,29.0,-30.692307692307693
2084.0,-100000.0,-240.30769230769226,-540.6923076923077,2052.076923076923,-40.38461538461539,29.0,-30.615384615384617
2086.0,-100000.0,-210.26923076923072,-570.7307692307693,2051.6923076923076,-40.46153846153846,29.0,-30.53846153846154
2088.0,-100000.0,-180.23076923076917,-600.7692307692308,2051.3076923076924,-40.53846153846154,29.0,-30.46153846153846
2090.0,-100000.0,-150.19230769230762,-630.8076923076924,2050.923076923077,-40.61538461538461,29.0,-30.384615384615383
2092.0,-100000.0,-120.15384615384608,-660.8461538461539,2050.5384615384614,-40.69230769230769,29.0,-30.307692307692307
2094.0,-100000.0,-90.11538461538453,-690.8846153846155,2050.153846153846,-40.76923076923077,29.0,-30.23076923076923
