timestamp,accX,accY,accZ,pressure,gyroX,gyroY,gyroZ
0.0,-98437.0,13265.98076923077,-15.01923076923077,2031.2884615384614,-52.96153846153846,19.0,-43.0
2.0,-98437.0,13220.923076923076,-60.07692307692308,2032.1538461538462,-52.84615384615385,19.0,-43.0
4.0,-98437.0,13190.884615384615,-90.11538461538461,2032.7307692307693,-52.76923076923077,19.0,-43.0
6.0,-98437.0,13160.846153846154,-120.15384615384616,2033.3076923076924,-52.69230769230769,19.0,-43.0
8.0,-98437.0,13130.807692307691,-150.1923076923077,2033.8846153846155,-52.61538461538461,19.0,-43.0
10.0,-98437.0,13100.76923076923,-180.23076923076923,2034.4615384615386,-52.53846153846154,19.0,-43.0
12.0,-98437.0,13070.73076923077,-210.26923076923077,2035.0384615384614,-52.46153846153846,19.0,-43.0
14.0,-98437.0,13040.692307692309,-240.30769230769232,2035.6153846153845,-52.38461538461539,19.0,-43.0
16.0,-98437.0,13010.653846153846,-270.34615384615387,2036.1923076923076,-52.30769230769231,19.0,-43.0
18.0,-98437.0,12980.615384615385,-300.3846153846154,2036.7692307692307,-52.23076923076923,19.0,-43.0
20.0,-98437.0,12950.576923076924,-330.42307692307696,2037.3461538461538,-52.15384615384615,19.0,-43.0
22.0,-98437.0,12920.538461538461,-360.46153846153845,2037.923076923077,-52.07692307692308,19.0,-43.0
24.0,-98437.0,12890.5,-390.5,2038.5,-52.0,19.0,-43.0
26.0,-98437.0,12860.461538461539,-420.53846153846155,2039.076923076923,-51.92307692307692,19.0,-43.0
28.0,-98437.0,12830.423076923076,-450.5769230769231,2039.6538461538462,-51.84615384615385,19.0,-43.0
30.0,-98437.0,12800.384615384615,-480.61538461538464,2040.2307692307693,-51.76923076923077,19.0,-43.0
32.0,-98437.0,12770.346153846154,-510.6538461538462,2040.8076923076924,-51.69230769230769,19.0,-43.0
34.0,-98437.0,12740.307692307691,-540.6923076923077,2041.3846153846155,-51.61538461538461,19.0,-43.0
36.0,-98437.0,12710.26923076923,-570.7307692307693,2041.9615384615386,-51.53846153846154,19.0,-43.0
38.0,-98437.0,12680.23076923077,-600.7692307692308,2042.5384615384614,-51.46153846153846,19.0,-43.0
40.0,-98437.0,12650.192307692309,-630.8076923076924,2043.1153846153845,-51.38461538461539,19.0,-43.0
42.0,-98437.0,12620.153846153846,-660.8461538461539,2043.6923076923076,-51.30769230769231,19.0,-43.0
44.0,-98437.0,12590.115384615385,-690.8846153846155,2044.2692307692307,-51.23076923076923,19.0,-43.0
46.0,-98437.0,12560.076923076924,-720.9230769230769,2044.8461538461538,-51.15384615384615,19.0,-43.0
48.0,-98437.0,12530.038461538461,-750.9615384615385,2045.423076923077,-51.07692307692308,19.0,-43.0
50.0,-98437.0,12515.01923076923,-765.9807692307693,2045.9038461538462,-50.94230769230769,18.98076923076923,-43.0
52.0,-98437.0,12560.076923076924,-720.9230769230769,2045.6153846153845,-50.76923076923077,18.923076923076923,-43.0
54.0,-98437.0,12590.115384615385,-690.8846153846154,2045.423076923077,-50.65384615384615,18.884615384615383,-43.0
56.0,-98437.0,12620.153846153846,-660.8461538461538,2045.2307692307693,-50.53846153846154,18.846153846153847,-43.0
58.0,-98437.0,12650.192307692309,-630.8076923076923,2045.0384615384614,-50.42307692307692,18.807692307692307,-43.0
60.0,-98437.0,12680.23076923077,-600.7692307692307,2044.8461538461538,-50.30769230769231,18.76923076923077,-43.0
62.0,-98437.0,12710.26923076923,-570.7307692307693,2044.6538461538462,-50.19230769230769,18.73076923076923,-43.0
64.0,-98437.0,12740.307692307691,-540.6923076923076,2044.4615384615386,-50.07692307692308,18.692307692307693,-43.0
66.0,-98437.0,12770.346153846154,-510.65384615384613,2044.2692307692307,-49.96153846153846,18.653846153846153,-43.0
68.0,-98437.0,12800.384615384615,-480.6153846153846,2044.076923076923,-49.84615384615385,18.615384615384617,-43.0
70.0,-98437.0,12830.423076923076,-450.57692307692304,2043.8846153846155,-49.73076923076923,18.576923076923077,-43.0
72.0,-98437.0,12860.461538461539,-420.53846153846155,2043.6923076923076,-49.61538461538461,18.53846153846154,-43.0
74.0,-98437.0,12890.5,-390.5,2043.5,-49.5,18.5,-43.0
76.0,-98437.0,12920.538461538461,-360.46153846153845,2043.3076923076924,-49.38461538461539,18.46153846153846,-43.0
78.0,-98437.0,12950.576923076924,-330.4230769230769,2043.1153846153845,-49.26923076923077,18.423076923076923,-43.0
80.0,-98437.0,12980.615384615385,-300.38461538461536,2042.923076923077,-49.15384615384615,18.384615384615383,-43.0
82.0,-98437.0,13010.653846153846,-270.3461538461538,2042.7307692307693,-49.03846153846154,18.346153846153847,-43.0
84.0,-98437.0,13040.692307692309,-240.30769230769226,2042.5384615384614,-48.92307692307692,18.307692307692307,-43.0
86.0,-98437.0,13070.73076923077,-210.26923076923072,2042.3461538461538,-48.80769230769231,18.26923076923077,-43.0
88.0,-98437.0,13100.76923076923,-180.23076923076917,2042.1538461538462,-48.69230769230769,18.23076923076923,-43.0
90.0,-98437.0,13130.807692307691,-150.19230769230762,2041.9615384615386,-48.57692307692308,18.192307692307693,-43.0
92.0,-98437.0,13160.846153846154,-120.15384615384608,2041.7692307692307,-48.46153846153846,18.153846153846153,-43.0
94.0,-98437.0,13190.884615384615,-90.11538461538453,2041.576923076923,-48.34615384615385,18.115384615384617,-43.0
96.0,-98437.0,13220.923076923076,-60.076923076923094,2041.3846153846155,-48.23076923076923,18.076923076923077,-43.0
98.0,-98437.0,13250.961538461539,-30.038461538461547,2041.1923076923076,-48.11538461538461,18.03846153846154,-43.0
100.0,-98437.0,13311.038461538461,0.0,2040.9807692307693,-47.94230769230769,18.01923076923077,-43.0
102.0,-98437.0,13401.153846153846,0.0,2040.923076923077,-47.76923076923077,18.076923076923077,-43.0
104.0,-98437.0,13461.23076923077,0.0,2040.8846153846155,-47.65384615384615,18.115384615384617,-43.0
106.0,-98437.0,13521.307692307691,0.0,2040.8461538461538,-47.53846153846154,18.153846153846153,-43.0
108.0,-98437.0,13581.384615384615,0.0,2040.8076923076924,-47.42307692307692,18.192307692307693,-43.0
110.0,-98437.0,13641.461538461539,0.0,2040.7692307692307,-47.30769230769231,18.23076923076923,-43.0
112.0,-98437.0,13701.538461538461,0.0,2040.7307692307693,-47.19230769230769,18.26923076923077,-43.0
114.0,-98437.0,13761.615384615385,0.0,2040.6923076923076,-47.07692307692308,18.307692307692307,-43.0
116.0,-98437.0,13821.692307692309,0.0,2040.6538461538462,-46.96153846153846,18.346153846153847,-43.0
118.0,-98437.0,13881.76923076923,0.0,2040.6153846153845,-46.84615384615385,18.384615384615383,-43.0
120.0,-98437.0,13941.846153846154,0.0,2040.576923076923,-46.73076923076923,18.423076923076923,-43.0
122.0,-98437.0,14001.923076923076,0.0,2040.5384615384614,-46.61538461538461,18.46153846153846,-43.0
124.0,-98437.0,14062.0,0.0,2040.5,-46.5,18.5,-43.0
126.0,-98437.0,14122.076923076924,0.0,2040.4615384615386,-46.38461538461539,18.53846153846154,-43.0
128.0,-98437.0,14182.153846153846,0.0,2040.423076923077,-46.26923076923077,18.576923076923077,-43.0
130.0,-98437.0,14242.23076923077,0.0,2040.3846153846155,-46.15384615384615,18.615384615384617,-43.0
132.0,-98437.0,14302.307692307691,0.0,2040.3461538461538,-46.03846153846154,18.653846153846153,-43.0
134.0,-98437.0,14362.384615384615,0.0,2040.3076923076924,-45.92307692307692,18.692307692307693,-43.0
136.0,-98437.0,14422.461538461539,0.0,2040.2692307692307,-45.80769230769231,18.73076923076923,-43.0
138.0,-98437.0,14482.538461538461,0.0,2040.2307692307693,-45.69230769230769,18.76923076923077,-43.0
140.0,-98437.0,14542.615384615385,0.0,2040.1923076923076,-45.57692307692308,18.807692307692307,-43.0
142.0,-98437.0,14602.692307692309,0.0,2040.1538461538462,-45.46153846153846,18.846153846153847,-43.0
144.0,-98437.0,14662.76923076923,0.0,2040.1153846153845,-45.34615384615385,18.884615384615383,-43.0
146.0,-98437.0,14722.846153846154,0.0,2040.076923076923,-45.23076923076923,18.923076923076923,-43.0
148.0,-98437.0,14782.923076923076,0.0,2040.0384615384614,-45.11538461538461,18.96153846153846,-43.0
150.0,-98421.98076923077,14797.942307692309,0.0,2040.0961538461538,-44.92307692307692,19.0,-43.0
152.0,-98376.92307692308,14662.76923076923,0.0,2040.3846153846155,-44.69230769230769,19.0,-43.0
154.0,-98346.88461538461,14572.653846153846,0.0,2040.576923076923,-44.53846153846154,19.0,-43.0
156.0,-98316.84615384616,14482.538461538461,0.0,2040.7692307692307,-44.38461538461539,19.0,-43.0
158.0,-98286.80769230769,14392.423076923076,0.0,2040.9615384615386,-44.23076923076923,19.0,-43.0
160.0,-98256.76923076923,14302.307692307691,0.0,2041.1538461538462,-44.07692307692308,19.0,-43.0
162.0,-98226.73076923077,14212.192307692309,0.0,2041.3461538461538,-43.92307692307692,19.0,-43.0
164.0,-98196.69230769231,14122.076923076924,0.0,2041.5384615384614,-43.76923076923077,19.0,-43.0
166.0,-98166.65384615384,14031.961538461539,0.0,2041.7307692307693,-43.61538461538461,19.0,-43.0
168.0,-98136.61538461539,13941.846153846154,0.0,2041.923076923077,-43.46153846153846,19.0,-43.0
170.0,-98106.57692307692,13851.73076923077,0.0,2042.1153846153845,-43.30769230769231,19.0,-43.0
172.0,-98076.53846153847,13761.615384615385,0.0,2042.3076923076924,-43.15384615384615,19.0,-43.0
174.0,-98046.5,13671.5,0.0,2042.5,-43.0,19.0,-43.0
176.0,-98016.46153846153,13581.384615384615,0.0,2042.6923076923076,-42.84615384615385,19.0,-43.0
178.0,-97986.42307692308,13491.26923076923,0.0,2042.8846153846155,-42.69230769230769,19.0,-43.0
180.0,-97956.38461538461,13401.153846153846,0.0,2043.076923076923,-42.53846153846154,19.0,-43.0
182.0,-97926.34615384616,13311.038461538461,0.0,2043.2692307692307,-42.38461538461539,19.0,-43.0
184.0,-97896.30769230769,13220.923076923076,0.0,2043.4615384615386,-42.23076923076923,19.0,-43.0
186.0,-97866.26923076923,13130.807692307691,0.0,2043.6538461538462,-42.07692307692308,19.0,-43.0
188.0,-97836.23076923077,13040.692307692309,0.0,2043.8461538461538,-41.92307692307692,19.0,-43.0
190.0,-97806.19230769231,12950.576923076924,0.0,2044.0384615384614,-41.76923076923077,19.0,-43.0
192.0,-97776.15384615384,12860.461538461539,0.0,2044.2307692307693,-41.61538461538461,19.0,-43.0
194.0,-97746.11538461539,12770.346153846154,0.0,2044.423076923077,-41.46153846153846,19.0,-43.0
196.0,-97716.07692307692,12680.23076923077,0.0,2044.6153846153845,-41.30769230769231,19.0,-43.0
198.0,-97686.03846153847,12590.115384615385,0.0,2044.8076923076924,-41.15384615384615,19.0,-43.0
200.0,-97671.01923076923,12545.057692307691,-30.03846153846154,2044.8653846153848,-40.90384615384615,19.01923076923077,-42.980769230769226
202.0,-97716.07692307692,12680.23076923077,-120.15384615384616,2044.4615384615386,-40.61538461538461,19.076923076923077,-42.92307692307692
204.0,-97746.11538461539,12770.346153846154,-180.23076923076923,2044.1923076923076,-40.42307692307692,19.115384615384617,-42.88461538461539
206.0,-97776.15384615384,12860.461538461539,-240.30769230769232,2043.923076923077,-40.23076923076923,19.153846153846153,-42.84615384615385
208.0,-97806.19230769231,12950.576923076924,-300.3846153846154,2043.6538461538462,-40.03846153846154,19.192307692307693,-42.80769230769231
210.0,-97836.23076923077,13040.692307692309,-360.46153846153845,2043.3846153846155,-39.84615384615385,19.23076923076923,-42.76923076923077
212.0,-97866.26923076923,13130.807692307691,-420.53846153846155,2043.1153846153845,-39.65384615384615,19.26923076923077,-42.73076923076923
214.0,-97896.30769230769,13220.923076923076,-480.61538461538464,2042.8461538461538,-39.46153846153846,19.307692307692307,-42.69230769230769
216.0,-97926.34615384616,13311.038461538461,-540.6923076923077,2042.576923076923,-39.26923076923077,19.346153846153847,-42.65384615384615
218.0,-97956.38461538461,13401.153846153846,-600.7692307692308,2042.3076923076924,-39.07692307692308,19.384615384615383,-42.61538461538461
220.0,-97986.42307692308,13491.26923076923,-660.8461538461539,2042.0384615384614,-38.88461538461539,19.423076923076923,-42.57692307692308
222.0,-98016.46153846153,13581.384615384615,-720.9230769230769,2041.7692307692307,-38.69230769230769,19.46153846153846,-42.53846153846154
224.0,-98046.5,13671.5,-781.0,2041.5,-38.5,19.5,-42.5
226.0,-98076.53846153847,13761.615384615385,-841.0769230769231,2041.2307692307693,-38.30769230769231,19.53846153846154,-42.46153846153846
228.0,-98106.57692307692,13851.73076923077,-901.1538461538462,2040.9615384615386,-38.11538461538461,19.576923076923077,-42.42307692307692
230.0,-98136.61538461539,13941.846153846154,-961.2307692307693,2040.6923076923076,-37.92307692307692,19.615384615384617,-42.38461538461539
232.0,-98166.65384615384,14031.961538461539,-1021.3076923076924,2040.423076923077,-37.73076923076923,19.653846153846153,-42.34615384615385
234.0,-98196.69230769231,14122.076923076924,-1081.3846153846155,2040.1538461538462,-37.53846153846154,19.692307692307693,-42.30769230769231
236.0,-98226.73076923077,14212.192307692309,-1141.4615384615386,2039.8846153846155,-37.34615384615385,19.73076923076923,-42.26923076923077
238.0,-98256.76923076923,14302.307692307691,-1201.5384615384617,2039.6153846153845,-37.15384615384615,19.76923076923077,-42.23076923076923
240.0,-98286.80769230769,14392.423076923076,-1261.6153846153848,2039.3461538461538,-36.96153846153846,19.807692307692307,-42.19230769230769
242.0,-98316.84615384616,14482.538461538461,-1321.6923076923078,2039.076923076923,-36.76923076923077,19.846153846153847,-42.15384615384615
244.0,-98346.88461538461,14572.653846153846,-1381.769230769231,2038.8076923076924,-36.57692307692308,19.884615384615383,-42.11538461538461
246.0,-98376.92307692308,14662.76923076923,-1441.8461538461538,2038.5384615384614,-36.38461538461539,19.923076923076923,-42.07692307692308
248.0,-98406.96153846153,14752.884615384615,-1501.923076923077,2038.2692307692307,-36.19230769230769,19.96153846153846,-42.03846153846154
250.0,-98421.98076923077,14797.942307692309,-1546.9807692307693,2038.0384615384614,-35.96153846153846,19.98076923076923,-42.0
252.0,-98376.92307692308,14662.76923076923,-1501.923076923077,2038.1538461538462,-35.84615384615385,19.923076923076923,-42.0
254.0,-98346.88461538461,14572.653846153846,-1471.8846153846155,2038.2307692307693,-35.76923076923077,19.884615384615383,-42.0
256.0,-98316.84615384616,14482.538461538461,-1441.8461538461538,2038.3076923076924,-35.69230769230769,19.846153846153847,-42.0
258.0,-98286.80769230769,14392.423076923076,-1411.8076923076924,2038.3846153846155,-35.61538461538461,19.807692307692307,-42.0
260.0,-98256.76923076923,14302.307692307691,-1381.7692307692307,2038.4615384615386,-35.53846153846154,19.76923076923077,-42.0
262.0,-98226.73076923077,14212.192307692309,-1351.7307692307693,2038.5384615384614,-35.46153846153846,19.73076923076923,-42.0
264.0,-98196.69230769231,14122.076923076924,-1321.6923076923076,2038.6153846153845,-35.38461538461539,19.692307692307693,-42.0
266.0,-98166.65384615384,14031.961538461539,-1291.6538461538462,2038.6923076923076,-35.30769230769231,19.653846153846153,-42.0
268.0,-98136.61538461539,13941.846153846154,-1261.6153846153845,2038.7692307692307,-35.23076923076923,19.615384615384617,-42.0
270.0,-98106.57692307692,13851.73076923077,-1231.576923076923,2038.8461538461538,-35.15384615384615,19.576923076923077,-42.0
272.0,-98076.53846153847,13761.615384615385,-1201.5384615384614,2038.923076923077,-35.07692307692308,19.53846153846154,-42.0
274.0,-98046.5,13671.5,-1171.5,2039.0,-35.0,19.5,-42.0
276.0,-98016.46153846153,13581.384615384615,-1141.4615384615386,2039.076923076923,-34.92307692307692,19.46153846153846,-42.0
278.0,-97986.42307692308,13491.26923076923,-1111.423076923077,2039.1538461538462,-34.84615384615385,19.423076923076923,-42.0
280.0,-97956.38461538461,13401.153846153846,-1081.3846153846152,2039.2307692307693,-34.76923076923077,19.384615384615383,-42.0
282.0,-97926.34615384616,13311.038461538461,-1051.3461538461538,2039.3076923076924,-34.69230769230769,19.346153846153847,-42.0
284.0,-97896.30769230769,13220.923076923076,-1021.3076923076923,2039.3846153846155,-34.61538461538461,19.307692307692307,-42.0
286.0,-97866.26923076923,13130.807692307691,-991.2692307692307,2039.4615384615386,-34.53846153846154,19.26923076923077,-42.0
288.0,-97836.23076923077,13040.692307692309,-961.2307692307692,2039.5384615384614,-34.46153846153846,19.23076923076923,-42.0
290.0,-97806.19230769231,12950.576923076924,-931.1923076923076,2039.6153846153845,-34.38461538461539,19.192307692307693,-42.0
292.0,-97776.15384615384,12860.461538461539,-901.1538461538461,2039.6923076923076,-34.30769230769231,19.153846153846153,-42.0
294.0,-97746.11538461539,12770.346153846154,-871.1153846153845,2039.7692307692307,-34.23076923076923,19.115384615384617,-42.0
296.0,-97716.07692307692,12680.23076923077,-841.0769230769231,2039.8461538461538,-34.15384615384615,19.076923076923077,-42.0
298.0,-97686.03846153847,12590.115384615385,-811.0384615384615,2039.923076923077,-34.07692307692308,19.03846153846154,-42.0
300.0,-97671.01923076923,12530.038461538461,-796.0192307692307,2039.9615384615386,-33.96153846153846,19.01923076923077,-42.0
302.0,-97716.07692307692,12620.153846153846,-841.0769230769231,2039.8461538461538,-33.84615384615385,19.076923076923077,-42.0
304.0,-97746.11538461539,12680.23076923077,-871.1153846153846,2039.7692307692307,-33.76923076923077,19.115384615384617,-42.0
306.0,-97776.15384615384,12740.307692307691,-901.1538461538462,2039.6923076923076,-33.69230769230769,19.153846153846153,-42.0
308.0,-97806.19230769231,12800.384615384615,-931.1923076923077,2039.6153846153845,-33.61538461538461,19.192307692307693,-42.0
310.0,-97836.23076923077,12860.461538461539,-961.2307692307693,2039.5384615384614,-33.53846153846154,19.23076923076923,-42.0
312.0,-97866.26923076923,12920.538461538461,-991.2692307692307,2039.4615384615386,-33.46153846153846,19.26923076923077,-42.0
314.0,-97896.30769230769,12980.615384615385,-1021.3076923076924,2039.3846153846155,-33.38461538461539,19.307692307692307,-42.0
316.0,-97926.34615384616,13040.692307692309,-1051.3461538461538,2039.3076923076924,-33.30769230769231,19.346153846153847,-42.0
318.0,-97956.38461538461,13100.76923076923,-1081.3846153846155,2039.2307692307693,-33.23076923076923,19.384615384615383,-42.0
320.0,-97986.42307692308,13160.846153846154,-1111.423076923077,2039.1538461538462,-33.15384615384615,19.423076923076923,-42.0
322.0,-98016.46153846153,13220.923076923076,-1141.4615384615386,2039.076923076923,-33.07692307692308,19.46153846153846,-42.0
324.0,-98046.5,13281.0,-1171.5,2039.0,-33.0,19.5,-42.0
326.0,-98076.53846153847,13341.076923076924,-1201.5384615384614,2038.923076923077,-32.92307692307692,19.53846153846154,-42.0
328.0,-98106.57692307692,13401.153846153846,-1231.576923076923,2038.8461538461538,-32.84615384615385,19.576923076923077,-42.0
330.0,-98136.61538461539,13461.23076923077,-1261.6153846153848,2038.7692307692307,-32.76923076923077,19.615384615384617,-42.0
332.0,-98166.65384615384,13521.307692307691,-1291.6538461538462,2038.6923076923076,-32.69230769230769,19.653846153846153,-42.0
334.0,-98196.69230769231,13581.384615384615,-1321.6923076923076,2038.6153846153845,-32.61538461538461,19.692307692307693,-42.0
336.0,-98226.73076923077,13641.461538461539,-1351.7307692307693,2038.5384615384614,-32.53846153846154,19.73076923076923,-42.0
338.0,-98256.76923076923,13701.538461538461,-1381.769230769231,2038.4615384615386,-32.46153846153846,19.76923076923077,-42.0
340.0,-98286.80769230769,13761.615384615385,-1411.8076923076924,2038.3846153846155,-32.38461538461539,19.807692307692307,-42.0
342.0,-98316.84615384616,13821.692307692309,-1441.8461538461538,2038.3076923076924,-32.30769230769231,19.846153846153847,-42.0
344.0,-98346.88461538461,13881.76923076923,-1471.8846153846155,2038.2307692307693,-32.23076923076923,19.884615384615383,-42.0
346.0,-98376.92307692308,13941.846153846154,-1501.923076923077,2038.1538461538462,-32.15384615384615,19.923076923076923,-42.0
348.0,-98406.96153846153,14001.923076923076,-1531.9615384615386,2038.076923076923,-32.07692307692308,19.96153846153846,-42.0
350.0,-98452.01923076923,14031.961538461539,-1562.0,2038.0,-31.96153846153846,20.01923076923077,-41.980769230769226
352.0,-98497.07692307692,13941.846153846154,-1562.0,2038.0,-31.846153846153847,20.076923076923077,-41.92307692307692
354.0,-98527.11538461539,13881.76923076923,-1562.0,2038.0,-31.76923076923077,20.115384615384617,-41.88461538461539
356.0,-98557.15384615384,13821.692307692309,-1562.0,2038.0,-31.692307692307693,20.153846153846153,-41.84615384615385
358.0,-98587.19230769231,13761.615384615385,-1562.0,2038.0,-31.615384615384617,20.192307692307693,-41.80769230769231
360.0,-98617.23076923077,13701.538461538461,-1562.0,2038.0,-31.53846153846154,20.23076923076923,-41.76923076923077
362.0,-98647.26923076923,13641.461538461539,-1562.0,2038.0,-31.46153846153846,20.26923076923077,-41.73076923076923
364.0,-98677.30769230769,13581.384615384615,-1562.0,2038.0,-31.384615384615383,20.307692307692307,-41.69230769230769
366.0,-98707.34615384616,13521.307692307691,-1562.0,2038.0,-31.307692307692307,20.346153846153847,-41.65384615384615
368.0,-98737.38461538461,13461.23076923077,-1562.0,2038.0,-31.23076923076923,20.384615384615383,-41.61538461538461
370.0,-98767.42307692308,13401.153846153846,-1562.0,2038.0,-31.153846153846153,20.423076923076923,-41.57692307692308
372.0,-98797.46153846153,13341.076923076924,-1562.0,2038.0,-31.076923076923077,20.46153846153846,-41.53846153846154
374.0,-98827.5,13281.0,-1562.0,2038.0,-31.0,20.5,-41.5
376.0,-98857.53846153847,13220.923076923076,-1562.0,2038.0,-30.923076923076923,20.53846153846154,-41.46153846153846
378.0,-98887.57692307692,13160.846153846154,-1562.0,2038.0,-30.846153846153847,20.576923076923077,-41.42307692307692
380.0,-98917.61538461539,13100.76923076923,-1562.0,2038.0,-30.76923076923077,20.615384615384617,-41.38461538461539
382.0,-98947.65384615384,13040.692307692309,-1562.0,2038.0,-30.692307692307693,20.653846153846153,-41.34615384615385
384.0,-98977.69230769231,12980.615384615385,-1562.0,2038.0,-30.615384615384617,20.692307692307693,-41.30769230769231
386.0,-99007.73076923077,12920.538461538461,-1562.0,2038.0,-30.53846153846154,20.73076923076923,-41.26923076923077
388.0,-99037.76923076923,12860.461538461539,-1562.0,2038.0,-30.46153846153846,20.76923076923077,-41.23076923076923
390.0,-99067.80769230769,12800.384615384615,-1562.0,2038.0,-30.384615384615383,20.807692307692307,-41.19230769230769
392.0,-99097.84615384616,12740.307692307691,-1562.0,2038.0,-30.307692307692307,20.846153846153847,-41.15384615384615
394.0,-99127.88461538461,12680.23076923077,-1562.0,2038.0,-30.23076923076923,20.884615384615383,-41.11538461538461
396.0,-99157.92307692308,12620.153846153846,-1562.0,2038.0,-30.153846153846153,20.923076923076923,-41.07692307692308
398.0,-99187.96153846153,12560.076923076924,-1562.0,2038.0,-30.076923076923077,20.96153846153846,-41.03846153846154
400.0,-99218.0,12530.038461538461,-1546.9807692307693,2038.076923076923,-30.0,21.0,-41.019230769230774
402.0,-99218.0,12620.153846153846,-1501.923076923077,2038.3076923076924,-30.0,21.0,-41.07692307692308
404.0,-99218.0,12680.23076923077,-1471.8846153846155,2038.4615384615386,-30.0,21.0,-41.11538461538461
406.0,-99218.0,12740.307692307691,-1441.8461538461538,2038.6153846153845,-30.0,21.0,-41.15384615384615
408.0,-99218.0,12800.384615384615,-1411.8076923076924,2038.7692307692307,-30.0,21.0,-41.19230769230769
410.0,-99218.0,12860.461538461539,-1381.7692307692307,2038.923076923077,-30.0,21.0,-41.23076923076923
412.0,-99218.0,12920.538461538461,-1351.7307692307693,2039.076923076923,-30.0,21.0,-41.26923076923077
414.0,-99218.0,12980.615384615385,-1321.6923076923076,2039.2307692307693,-30.0,21.0,-41.30769230769231
416.0,-99218.0,13040.692307692309,-1291.6538461538462,2039.3846153846155,-30.0,21.0,-41.34615384615385
418.0,-99218.0,13100.76923076923,-1261.6153846153845,2039.5384615384614,-30.0,21.0,-41.38461538461539
420.0,-99218.0,13160.846153846154,-1231.576923076923,2039.6923076923076,-30.0,21.0,-41.42307692307692
422.0,-99218.0,13220.923076923076,-1201.5384615384614,2039.8461538461538,-30.0,21.0,-41.46153846153846
424.0,-99218.0,13281.0,-1171.5,2040.0,-30.0,21.0,-41.5
426.0,-99218.0,13341.076923076924,-1141.4615384615386,2040.1538461538462,-30.0,21.0,-41.53846153846154
428.0,-99218.0,13401.153846153846,-1111.423076923077,2040.3076923076924,-30.0,21.0,-41.57692307692308
430.0,-99218.0,13461.23076923077,-1081.3846153846152,2040.4615384615386,-30.0,21.0,-41.61538461538461
432.0,-99218.0,13521.307692307691,-1051.3461538461538,2040.6153846153845,-30.0,21.0,-41.65384615384615
434.0,-99218.0,13581.384615384615,-1021.3076923076923,2040.7692307692307,-30.0,21.0,-41.69230769230769
436.0,-99218.0,13641.461538461539,-991.2692307692307,2040.923076923077,-30.0,21.0,-41.73076923076923
438.0,-99218.0,13701.538461538461,-961.2307692307692,2041.076923076923,-30.0,21.0,-41.76923076923077
440.0,-99218.0,13761.615384615385,-931.1923076923076,2041.2307692307693,-30.0,21.0,-41.80769230769231
442.0,-99218.0,13821.692307692309,-901.1538461538461,2041.3846153846155,-30.0,21.0,-41.84615384615385
444.0,-99218.0,13881.76923076923,-871.1153846153845,2041.5384615384614,-30.0,21.0,-41.88461538461539
446.0,-99218.0,13941.846153846154,-841.0769230769231,2041.6923076923076,-30.0,21.0,-41.92307692307692
448.0,-99218.0,14001.923076923076,-811.0384615384615,2041.8461538461538,-30.0,21.0,-41.96153846153846
450.0,-99233.03846153847,14062.0,-826.0769230769231,2041.9807692307693,-30.01923076923077,21.0,-42.0
452.0,-99278.15384615384,14062.0,-961.3076923076924,2041.923076923077,-30.076923076923077,21.0,-42.0
454.0,-99308.23076923077,14062.0,-1051.4615384615386,2041.8846153846155,-30.115384615384617,21.0,-42.0
456.0,-99338.30769230769,14062.0,-1141.6153846153848,2041.8461538461538,-30.153846153846153,21.0,-42.0
458.0,-99368.38461538461,14062.0,-1231.769230769231,2041.8076923076924,-30.192307692307693,21.0,-42.0
460.0,-99398.46153846153,14062.0,-1321.923076923077,2041.7692307692307,-30.23076923076923,21.0,-42.0
462.0,-99428.53846153847,14062.0,-1412.076923076923,2041.7307692307693,-30.26923076923077,21.0,-42.0
464.0,-99458.61538461539,14062.0,-1502.2307692307693,2041.6923076923076,-30.307692307692307,21.0,-42.0
466.0,-99488.69230769231,14062.0,-1592.3846153846155,2041.6538461538462,-30.346153846153847,21.0,-42.0
468.0,-99518.76923076923,14062.0,-1682.5384615384617,2041.6153846153845,-30.384615384615383,21.0,-42.0
470.0,-99548.84615384616,14062.0,-1772.6923076923076,2041.576923076923,-30.423076923076923,21.0,-42.0
472.0,-99578.92307692308,14062.0,-1862.8461538461538,2041.5384615384614,-30.46153846153846,21.0,-42.0
474.0,-99609.0,14062.0,-1953.0,2041.5,-30.5,21.0,-42.0
476.0,-99639.07692307692,14062.0,-2043.1538461538462,2041.4615384615386,-30.53846153846154,21.0,-42.0
478.0,-99669.15384615384,14062.0,-2133.3076923076924,2041.423076923077,-30.576923076923077,21.0,-42.0
480.0,-99699.23076923077,14062.0,-2223.4615384615386,2041.3846153846155,-30.615384615384617,21.0,-42.0
482.0,-99729.30769230769,14062.0,-2313.6153846153848,2041.3461538461538,-30.653846153846153,21.0,-42.0
484.0,-99759.38461538461,14062.0,-2403.769230769231,2041.3076923076924,-30.692307692307693,21.0,-42.0
486.0,-99789.46153846153,14062.0,-2493.923076923077,2041.2692307692307,-30.73076923076923,21.0,-42.0
488.0,-99819.53846153847,14062.0,-2584.0769230769233,2041.2307692307693,-30.76923076923077,21.0,-42.0
490.0,-99849.61538461539,14062.0,-2674.2307692307695,2041.1923076923076,-30.807692307692307,21.0,-42.0
492.0,-99879.69230769231,14062.0,-2764.3846153846152,2041.1538461538462,-30.846153846153847,21.0,-42.0
494.0,-99909.76923076923,14062.0,-2854.538461538462,2041.1153846153845,-30.884615384615383,21.0,-42.0
496.0,-99939.84615384616,14062.0,-2944.6923076923076,2041.076923076923,-30.923076923076923,21.0,-42.0
498.0,-99969.92307692308,14062.0,-3034.846153846154,2041.0384615384614,-30.96153846153846,21.0,-42.0
500.0,-100030.03846153847,14046.98076923077,-3140.0192307692305,2040.9423076923076,-31.23076923076923,21.01923076923077,-42.03846153846154
502.0,-100120.15384615384,14001.923076923076,-3185.076923076923,2040.7692307692307,-31.923076923076923,21.076923076923077,-42.15384615384615
504.0,-100180.23076923077,13971.884615384615,-3215.1153846153848,2040.6538461538462,-32.38461538461539,21.115384615384617,-42.23076923076923
506.0,-100240.30769230769,13941.846153846154,-3245.153846153846,2040.5384615384614,-32.84615384615385,21.153846153846153,-42.30769230769231
508.0,-100300.38461538461,13911.807692307691,-3275.1923076923076,2040.423076923077,-33.30769230769231,21.192307692307693,-42.38461538461539
510.0,-100360.46153846153,13881.76923076923,-3305.230769230769,2040.3076923076924,-33.76923076923077,21.23076923076923,-42.46153846153846
512.0,-100420.53846153847,13851.73076923077,-3335.269230769231,2040.1923076923076,-34.23076923076923,21.26923076923077,-42.53846153846154
514.0,-100480.61538461539,13821.692307692309,-3365.3076923076924,2040.076923076923,-34.69230769230769,21.307692307692307,-42.61538461538461
516.0,-100540.69230769231,13791.653846153846,-3395.346153846154,2039.9615384615386,-35.15384615384615,21.346153846153847,-42.69230769230769
518.0,-100600.76923076923,13761.615384615385,-3425.3846153846152,2039.8461538461538,-35.61538461538461,21.384615384615383,-42.76923076923077
520.0,-100660.84615384616,13731.576923076924,-3455.423076923077,2039.7307692307693,-36.07692307692308,21.423076923076923,-42.84615384615385
522.0,-100720.92307692308,13701.538461538461,-3485.4615384615386,2039.6153846153845,-36.53846153846154,21.46153846153846,-42.92307692307692
524.0,-100781.0,13671.5,-3515.5,2039.5,-37.0,21.5,-43.0
526.0,-100841.07692307692,13641.461538461539,-3545.5384615384614,2039.3846153846155,-37.46153846153846,21.53846153846154,-43.07692307692308
528.0,-100901.15384615384,13611.423076923076,-3575.576923076923,2039.2692307692307,-37.92307692307692,21.576923076923077,-43.15384615384615
530.0,-100961.23076923077,13581.384615384615,-3605.6153846153848,2039.1538461538462,-38.38461538461539,21.615384615384617,-43.23076923076923
532.0,-101021.30769230769,13551.346153846154,-3635.653846153846,2039.0384615384614,-38.84615384615385,21.653846153846153,-43.30769230769231
534.0,-101081.38461538461,13521.307692307691,-3665.6923076923076,2038.923076923077,-39.30769230769231,21.692307692307693,-43.38461538461539
536.0,-101141.46153846153,13491.26923076923,-3695.7307692307695,2038.8076923076924,-39.769230769230774,21.73076923076923,-43.46153846153846
538.0,-101201.53846153847,13461.23076923077,-3725.769230769231,2038.6923076923076,-40.23076923076923,21.76923076923077,-43.53846153846154
540.0,-101261.61538461539,13431.192307692309,-3755.8076923076924,2038.576923076923,-40.69230769230769,21.807692307692307,-43.61538461538461
542.0,-101321.69230769231,13401.153846153846,-3785.846153846154,2038.4615384615386,-41.15384615384615,21.846153846153847,-43.69230769230769
544.0,-101381.76923076923,13371.115384615385,-3815.8846153846152,2038.3461538461538,-41.61538461538461,21.884615384615383,-43.76923076923077
546.0,-101441.84615384616,13341.076923076924,-3845.923076923077,2038.2307692307693,-42.07692307692308,21.923076923076923,-43.84615384615385
548.0,-101501.92307692308,13311.038461538461,-3875.9615384615386,2038.1153846153845,-42.53846153846154,21.96153846153846,-43.92307692307692
550.0,-101546.98076923077,13296.01923076923,-3906.0,2038.173076923077,-43.05769230769231,21.98076923076923,-44.0
552.0,-101501.92307692308,13341.076923076924,-3906.0,2038.6923076923076,-43.23076923076923,21.923076923076923,-44.0
554.0,-101471.88461538461,13371.115384615385,-3906.0,2039.0384615384614,-43.34615384615385,21.884615384615383,-44.0
556.0,-101441.84615384616,13401.153846153846,-3906.0,2039.3846153846155,-43.46153846153846,21.846153846153847,-44.0
558.0,-101411.80769230769,13431.192307692309,-3906.0,2039.7307692307693,-43.57692307692308,21.807692307692307,-44.0
560.0,-101381.76923076923,13461.23076923077,-3906.0,2040.076923076923,-43.69230769230769,21.76923076923077,-44.0
562.0,-101351.73076923077,13491.26923076923,-3906.0,2040.423076923077,-43.80769230769231,21.73076923076923,-44.0
564.0,-101321.69230769231,13521.307692307691,-3906.0,2040.7692307692307,-43.92307692307692,21.692307692307693,-44.0
566.0,-101291.65384615384,13551.346153846154,-3906.0,2041.1153846153845,-44.03846153846154,21.653846153846153,-44.0
568.0,-101261.61538461539,13581.384615384615,-3906.0,2041.4615384615386,-44.15384615384615,21.615384615384617,-44.0
570.0,-101231.57692307692,13611.423076923076,-3906.0,2041.8076923076924,-44.26923076923077,21.576923076923077,-44.0
572.0,-101201.53846153847,13641.461538461539,-3906.0,2042.1538461538462,-44.38461538461539,21.53846153846154,-44.0
574.0,-101171.5,13671.5,-3906.0,2042.5,-44.5,21.5,-44.0
576.0,-101141.46153846153,13701.538461538461,-3906.0,2042.8461538461538,-44.61538461538461,21.46153846153846,-44.0
578.0,-101111.42307692308,13731.576923076924,-3906.0,2043.1923076923076,-44.73076923076923,21.423076923076923,-44.0
580.0,-101081.38461538461,13761.615384615385,-3906.0,2043.5384615384614,-44.84615384615385,21.384615384615383,-44.0
582.0,-101051.34615384616,13791.653846153846,-3906.0,2043.8846153846155,-44.96153846153846,21.346153846153847,-44.0
584.0,-101021.30769230769,13821.692307692309,-3906.0,2044.2307692307693,-45.07692307692308,21.307692307692307,-44.0
586.0,-100991.26923076923,13851.73076923077,-3906.0,2044.576923076923,-45.19230769230769,21.26923076923077,-44.0
588.0,-100961.23076923077,13881.76923076923,-3906.0,2044.923076923077,-45.30769230769231,21.23076923076923,-44.0
590.0,-100931.19230769231,13911.807692307691,-3906.0,2045.2692307692307,-45.42307692307692,21.192307692307693,-44.0
592.0,-100901.15384615384,13941.846153846154,-3906.0,2045.6153846153845,-45.53846153846154,21.153846153846153,-44.0
594.0,-100871.11538461539,13971.884615384615,-3906.0,2045.9615384615386,-45.65384615384615,21.115384615384617,-44.0
596.0,-100841.07692307692,14001.923076923076,-3906.0,2046.3076923076924,-45.76923076923077,21.076923076923077,-44.0
598.0,-100811.03846153847,14031.961538461539,-3906.0,2046.6538461538462,-45.88461538461539,21.03846153846154,-44.0
600.0,-100765.98076923077,14077.01923076923,-3875.9423076923076,2046.923076923077,-46.11538461538461,20.98076923076923,-44.03846153846154
602.0,-100720.92307692308,14122.076923076924,-3785.769230769231,2046.6923076923076,-46.46153846153846,20.923076923076923,-44.15384615384615
604.0,-100690.88461538461,14152.115384615385,-3725.653846153846,2046.5384615384614,-46.69230769230769,20.884615384615383,-44.23076923076923
606.0,-100660.84615384616,14182.153846153846,-3665.5384615384614,2046.3846153846155,-46.92307692307692,20.846153846153847,-44.30769230769231
608.0,-100630.80769230769,14212.192307692309,-3605.423076923077,2046.2307692307693,-47.15384615384615,20.807692307692307,-44.38461538461539
610.0,-100600.76923076923,14242.23076923077,-3545.3076923076924,2046.076923076923,-47.38461538461539,20.76923076923077,-44.46153846153846
612.0,-100570.73076923077,14272.26923076923,-3485.1923076923076,2045.923076923077,-47.61538461538461,20.73076923076923,-44.53846153846154
614.0,-100540.69230769231,14302.307692307691,-3425.076923076923,2045.7692307692307,-47.84615384615385,20.692307692307693,-44.61538461538461
616.0,-100510.65384615384,14332.346153846154,-3364.9615384615386,2045.6153846153845,-48.07692307692308,20.653846153846153,-44.69230769230769
618.0,-100480.61538461539,14362.384615384615,-3304.846153846154,2045.4615384615386,-48.30769230769231,20.615384615384617,-44.76923076923077
620.0,-100450.57692307692,14392.423076923076,-3244.7307692307695,2045.3076923076924,-48.53846153846154,20.576923076923077,-44.84615384615385
622.0,-100420.53846153847,14422.461538461539,-3184.6153846153848,2045.1538461538462,-48.76923076923077,20.53846153846154,-44.92307692307692
624.0,-100390.5,14452.5,-3124.5,2045.0,-49.0,20.5,-45.0
626.0,-100360.46153846153,14482.538461538461,-3064.3846153846152,2044.8461538461538,-49.23076923076923,20.46153846153846,-45.07692307692308
628.0,-100330.42307692308,14512.576923076924,-3004.269230769231,2044.6923076923076,-49.46153846153846,20.423076923076923,-45.15384615384615
630.0,-100300.38461538461,14542.615384615385,-2944.153846153846,2044.5384615384614,-49.69230769230769,20.384615384615383,-45.23076923076923
632.0,-100270.34615384616,14572.653846153846,-2884.0384615384614,2044.3846153846155,-49.92307692307692,20.346153846153847,-45.30769230769231
634.0,-100240.30769230769,14602.692307692309,-2823.923076923077,2044.2307692307693,-50.15384615384615,20.307692307692307,-45.38461538461539
636.0,-100210.26923076923,14632.73076923077,-2763.8076923076924,2044.076923076923,-50.38461538461539,20.26923076923077,-45.46153846153846
638.0,-100180.23076923077,14662.76923076923,-2703.6923076923076,2043.923076923077,-50.61538461538461,20.23076923076923,-45.53846153846154
640.0,-100150.19230769231,14692.807692307691,-2643.576923076923,2043.7692307692307,-50.84615384615385,20.192307692307693,-45.61538461538461
642.0,-100120.15384615384,14722.846153846154,-2583.4615384615386,2043.6153846153845,-51.07692307692308,20.153846153846153,-45.69230769230769
644.0,-100090.11538461539,14752.884615384615,-2523.346153846154,2043.4615384615386,-51.30769230769231,20.115384615384617,-45.76923076923077
646.0,-100060.07692307692,14782.923076923076,-2463.2307692307695,2043.3076923076924,-51.53846153846154,20.076923076923077,-45.84615384615385
648.0,-100030.03846153847,14812.961538461539,-2403.1153846153848,2043.1538461538462,-51.76923076923077,20.03846153846154,-45.92307692307692
650.0,-100000.0,14858.038461538461,-2358.0384615384614,2042.9423076923076,-52.05769230769231,20.0,-45.980769230769226
652.0,-100000.0,14903.153846153846,-2403.153846153846,2042.7692307692307,-52.23076923076923,20.0,-45.92307692307692
654.0,-100000.0,14933.23076923077,-2433.230769230769,2042.6538461538462,-52.34615384615385,20.0,-45.88461538461539
656.0,-100000.0,14963.307692307691,-2463.3076923076924,2042.5384615384614,-52.46153846153846,20.0,-45.84615384615385
658.0,-100000.0,14993.384615384615,-2493.3846153846152,2042.423076923077,-52.57692307692308,20.0,-45.80769230769231
660.0,-100000.0,15023.461538461539,-2523.4615384615386,2042.3076923076924,-52.69230769230769,20.0,-45.76923076923077
662.0,-100000.0,15053.538461538461,-2553.5384615384614,2042.1923076923076,-52.80769230769231,20.0,-45.73076923076923
664.0,-100000.0,15083.615384615385,-2583.6153846153848,2042.076923076923,-52.92307692307692,20.0,-45.69230769230769
666.0,-100000.0,15113.692307692309,-2613.6923076923076,2041.9615384615386,-53.03846153846154,20.0,-45.65384615384615
668.0,-100000.0,15143.76923076923,-2643.769230769231,2041.8461538461538,-53.15384615384615,20.0,-45.61538461538461
670.0,-100000.0,15173.846153846154,-2673.846153846154,2041.7307692307693,-53.26923076923077,20.0,-45.57692307692308
672.0,-100000.0,15203.923076923076,-2703.923076923077,2041.6153846153845,-53.38461538461539,20.0,-45.53846153846154
674.0,-100000.0,15234.0,-2734.0,2041.5,-53.5,20.0,-45.5
676.0,-100000.0,15264.076923076924,-2764.076923076923,2041.3846153846155,-53.61538461538461,20.0,-45.46153846153846
678.0,-100000.0,15294.153846153846,-2794.153846153846,2041.2692307692307,-53.73076923076923,20.0,-45.42307692307692
680.0,-100000.0,15324.23076923077,-2824.230769230769,2041.1538461538462,-53.84615384615385,20.0,-45.38461538461539
682.0,-100000.0,15354.307692307691,-2854.3076923076924,2041.0384615384614,-53.96153846153846,20.0,-45.34615384615385
684.0,-100000.0,15384.384615384615,-2884.3846153846152,2040.923076923077,-54.07692307692308,20.0,-45.30769230769231
686.0,-100000.0,15414.461538461539,-2914.4615384615386,2040.8076923076924,-54.19230769230769,20.0,-45.26923076923077
688.0,-100000.0,15444.538461538461,-2944.5384615384614,2040.6923076923076,-54.30769230769231,20.0,-45.23076923076923
690.0,-100000.0,15474.615384615385,-2974.6153846153848,2040.576923076923,-54.42307692307692,20.0,-45.19230769230769
692.0,-100000.0,15504.692307692309,-3004.6923076923076,2040.4615384615386,-54.53846153846154,20.0,-45.15384615384615
694.0,-100000.0,15534.76923076923,-3034.7692307692305,2040.3461538461538,-54.65384615384615,20.0,-45.11538461538461
696.0,-100000.0,15564.846153846154,-3064.846153846154,2040.2307692307693,-54.76923076923077,20.0,-45.07692307692308
698.0,-100000.0,15594.923076923076,-3094.923076923077,2040.1153846153845,-54.88461538461539,20.0,-45.03846153846154
700.0,-99984.96153846153,15625.0,-3109.9615384615386,2039.9615384615386,-55.03846153846154,20.0,-45.0
702.0,-99939.84615384616,15625.0,-3064.846153846154,2039.8461538461538,-55.15384615384615,20.0,-45.0
704.0,-99909.76923076923,15625.0,-3034.769230769231,2039.7692307692307,-55.23076923076923,20.0,-45.0
706.0,-99879.69230769231,15625.0,-3004.6923076923076,2039.6923076923076,-55.30769230769231,20.0,-45.0
708.0,-99849.61538461539,15625.0,-2974.6153846153848,2039.6153846153845,-55.38461538461539,20.0,-45.0
710.0,-99819.53846153847,15625.0,-2944.5384615384614,2039.5384615384614,-55.46153846153846,20.0,-45.0
712.0,-99789.46153846153,15625.0,-2914.4615384615386,2039.4615384615386,-55.53846153846154,20.0,-45.0
714.0,-99759.38461538461,15625.0,-2884.3846153846152,2039.3846153846155,-55.61538461538461,20.0,-45.0
716.0,-99729.30769230769,15625.0,-2854.3076923076924,2039.3076923076924,-55.69230769230769,20.0,-45.0
718.0,-99699.23076923077,15625.0,-2824.230769230769,2039.2307692307693,-55.76923076923077,20.0,-45.0
720.0,-99669.15384615384,15625.0,-2794.153846153846,2039.1538461538462,-55.84615384615385,20.0,-45.0
722.0,-99639.07692307692,15625.0,-2764.076923076923,2039.076923076923,-55.92307692307692,20.0,-45.0
724.0,-99609.0,15625.0,-2734.0,2039.0,-56.0,20.0,-45.0
726.0,-99578.92307692308,15625.0,-2703.923076923077,2038.923076923077,-56.07692307692308,20.0,-45.0
728.0,-99548.84615384616,15625.0,-2673.846153846154,2038.8461538461538,-56.15384615384615,20.0,-45.0
730.0,-99518.76923076923,15625.0,-2643.769230769231,2038.7692307692307,-56.23076923076923,20.0,-45.0
732.0,-99488.69230769231,15625.0,-2613.6923076923076,2038.6923076923076,-56.30769230769231,20.0,-45.0
734.0,-99458.61538461539,15625.0,-2583.6153846153848,2038.6153846153845,-56.38461538461539,20.0,-45.0
736.0,-99428.53846153847,15625.0,-2553.5384615384614,2038.5384615384614,-56.46153846153846,20.0,-45.0
738.0,-99398.46153846153,15625.0,-2523.4615384615386,2038.4615384615386,-56.53846153846154,20.0,-45.0
740.0,-99368.38461538461,15625.0,-2493.3846153846152,2038.3846153846155,-56.61538461538461,20.0,-45.0
742.0,-99338.30769230769,15625.0,-2463.3076923076924,2038.3076923076924,-56.69230769230769,20.0,-45.0
744.0,-99308.23076923077,15625.0,-2433.2307692307695,2038.2307692307693,-56.76923076923077,20.0,-45.0
746.0,-99278.15384615384,15625.0,-2403.153846153846,2038.1538461538462,-56.84615384615385,20.0,-45.0
748.0,-99248.07692307692,15625.0,-2373.076923076923,2038.076923076923,-56.92307692307692,20.0,-45.0
750.0,-99218.0,15594.942307692309,-2327.9807692307695,2038.1346153846152,-57.03846153846154,20.0,-44.980769230769226
752.0,-99218.0,15504.76923076923,-2282.923076923077,2038.5384615384614,-57.15384615384615,20.0,-44.92307692307692
754.0,-99218.0,15444.653846153846,-2252.8846153846152,2038.8076923076924,-57.23076923076923,20.0,-44.88461538461539
756.0,-99218.0,15384.538461538461,-2222.846153846154,2039.076923076923,-57.30769230769231,20.0,-44.84615384615385
758.0,-99218.0,15324.423076923076,-2192.8076923076924,2039.3461538461538,-57.38461538461539,20.0,-44.80769230769231
760.0,-99218.0,15264.307692307691,-2162.769230769231,2039.6153846153845,-57.46153846153846,20.0,-44.76923076923077
762.0,-99218.0,15204.192307692309,-2132.730769230769,2039.8846153846155,-57.53846153846154,20.0,-44.73076923076923
764.0,-99218.0,15144.076923076924,-2102.6923076923076,2040.1538461538462,-57.61538461538461,20.0,-44.69230769230769
766.0,-99218.0,15083.961538461539,-2072.653846153846,2040.423076923077,-57.69230769230769,20.0,-44.65384615384615
768.0,-99218.0,15023.846153846154,-2042.6153846153845,2040.6923076923076,-57.76923076923077,20.0,-44.61538461538461
770.0,-99218.0,14963.73076923077,-2012.576923076923,2040.9615384615386,-57.84615384615385,20.0,-44.57692307692308
772.0,-99218.0,14903.615384615385,-1982.5384615384614,2041.2307692307693,-57.92307692307692,20.0,-44.53846153846154
774.0,-99218.0,14843.5,-1952.5,2041.5,-58.0,20.0,-44.5
776.0,-99218.0,14783.384615384615,-1922.4615384615386,2041.7692307692307,-58.07692307692308,20.0,-44.46153846153846
778.0,-99218.0,14723.26923076923,-1892.423076923077,2042.0384615384614,-58.15384615384615,20.0,-44.42307692307692
780.0,-99218.0,14663.153846153846,-1862.3846153846152,2042.3076923076924,-58.23076923076923,20.0,-44.38461538461539
782.0,-99218.0,14603.038461538461,-1832.3461538461538,2042.576923076923,-58.30769230769231,20.0,-44.34615384615385
784.0,-99218.0,14542.923076923076,-1802.3076923076924,2042.8461538461538,-58.38461538461539,20.0,-44.30769230769231
786.0,-99218.0,14482.807692307691,-1772.2692307692307,2043.1153846153845,-58.46153846153846,20.0,-44.26923076923077
788.0,-99218.0,14422.692307692309,-1742.230769230769,2043.3846153846155,-58.53846153846154,20.0,-44.23076923076923
790.0,-99218.0,14362.576923076924,-1712.1923076923076,2043.6538461538462,-58.61538461538461,20.0,-44.19230769230769
792.0,-99218.0,14302.461538461539,-1682.1538461538462,2043.923076923077,-58.69230769230769,20.0,-44.15384615384615
794.0,-99218.0,14242.346153846154,-1652.1153846153845,2044.1923076923076,-58.76923076923077,20.0,-44.11538461538461
796.0,-99218.0,14182.23076923077,-1622.076923076923,2044.4615384615386,-58.84615384615385,20.0,-44.07692307692308
798.0,-99218.0,14122.115384615385,-1592.0384615384614,2044.7307692307693,-58.92307692307692,20.0,-44.03846153846154
800.0,-99218.0,14077.01923076923,-1577.0192307692307,2044.9615384615386,-59.019230769230774,20.0,-43.980769230769226
802.0,-99218.0,14122.076923076924,-1622.076923076923,2044.8461538461538,-59.07692307692308,20.0,-43.92307692307692
804.0,-99218.0,14152.115384615385,-1652.1153846153845,2044.7692307692307,-59.11538461538461,20.0,-43.88461538461539
806.0,-99218.0,14182.153846153846,-1682.1538461538462,2044.6923076923076,-59.15384615384615,20.0,-43.84615384615385
808.0,-99218.0,14212.192307692309,-1712.1923076923076,2044.6153846153845,-59.19230769230769,20.0,-43.80769230769231
810.0,-99218.0,14242.23076923077,-1742.2307692307693,2044.5384615384614,-59.23076923076923,20.0,-43.76923076923077
812.0,-99218.0,14272.26923076923,-1772.2692307692307,2044.4615384615386,-59.26923076923077,20.0,-43.73076923076923
814.0,-99218.0,14302.307692307691,-1802.3076923076924,2044.3846153846155,-59.30769230769231,20.0,-43.69230769230769
816.0,-99218.0,14332.346153846154,-1832.3461538461538,2044.3076923076924,-59.34615384615385,20.0,-43.65384615384615
818.0,-99218.0,14362.384615384615,-1862.3846153846155,2044.2307692307693,-59.38461538461539,20.0,-43.61538461538461
820.0,-99218.0,14392.423076923076,-1892.423076923077,2044.1538461538462,-59.42307692307692,20.0,-43.57692307692308
822.0,-99218.0,14422.461538461539,-1922.4615384615386,2044.076923076923,-59.46153846153846,20.0,-43.53846153846154
824.0,-99218.0,14452.5,-1952.5,2044.0,-59.5,20.0,-43.5
826.0,-99218.0,14482.538461538461,-1982.5384615384614,2043.923076923077,-59.53846153846154,20.0,-43.46153846153846
828.0,-99218.0,14512.576923076924,-2012.576923076923,2043.8461538461538,-59.57692307692308,20.0,-43.42307692307692
830.0,-99218.0,14542.615384615385,-2042.6153846153848,2043.7692307692307,-59.61538461538461,20.0,-43.38461538461539
832.0,-99218.0,14572.653846153846,-2072.653846153846,2043.6923076923076,-59.65384615384615,20.0,-43.34615384615385
834.0,-99218.0,14602.692307692309,-2102.6923076923076,2043.6153846153845,-59.69230769230769,20.0,-43.30769230769231
836.0,-99218.0,14632.73076923077,-2132.7307692307695,2043.5384615384614,-59.73076923076923,20.0,-43.26923076923077
838.0,-99218.0,14662.76923076923,-2162.769230769231,2043.4615384615386,-59.76923076923077,20.0,-43.23076923076923
840.0,-99218.0,14692.807692307691,-2192.8076923076924,2043.3846153846155,-59.80769230769231,20.0,-43.19230769230769
842.0,-99218.0,14722.846153846154,-2222.846153846154,2043.3076923076924,-59.84615384615385,20.0,-43.15384615384615
844.0,-99218.0,14752.884615384615,-2252.8846153846152,2043.2307692307693,-59.88461538461539,20.0,-43.11538461538461
846.0,-99218.0,14782.923076923076,-2282.923076923077,2043.1538461538462,-59.92307692307692,20.0,-43.07692307692308
848.0,-99218.0,14812.961538461539,-2312.9615384615386,2043.076923076923,-59.96153846153846,20.0,-43.03846153846154
850.0,-99187.96153846153,14827.98076923077,-2343.0,2042.8846153846152,-60.0,20.0,-42.980769230769226
852.0,-99097.84615384616,14782.923076923076,-2343.0,2042.5384615384614,-60.0,20.0,-42.92307692307692
854.0,-99037.76923076923,14752.884615384615,-2343.0,2042.3076923076924,-60.0,20.0,-42.88461538461539
856.0,-98977.69230769231,14722.846153846154,-2343.0,2042.076923076923,-60.0,20.0,-42.84615384615385
858.0,-98917.61538461539,14692.807692307691,-2343.0,2041.8461538461538,-60.0,20.0,-42.80769230769231
860.0,-98857.53846153847,14662.76923076923,-2343.0,2041.6153846153845,-60.0,20.0,-42.76923076923077
862.0,-98797.46153846153,14632.73076923077,-2343.0,2041.3846153846155,-60.0,20.0,-42.73076923076923
864.0,-98737.38461538461,14602.692307692309,-2343.0,2041.1538461538462,-60.0,20.0,-42.69230769230769
866.0,-98677.30769230769,14572.653846153846,-2343.0,2040.923076923077,-60.0,20.0,-42.65384615384615
868.0,-98617.23076923077,14542.615384615385,-2343.0,2040.6923076923076,-60.0,20.0,-42.61538461538461
870.0,-98557.15384615384,14512.576923076924,-2343.0,2040.4615384615386,-60.0,20.0,-42.57692307692308
872.0,-98497.07692307692,14482.538461538461,-2343.0,2040.2307692307693,-60.0,20.0,-42.53846153846154
874.0,-98437.0,14452.5,-2343.0,2040.0,-60.0,20.0,-42.5
876.0,-98376.92307692308,14422.461538461539,-2343.0,2039.7692307692307,-60.0,20.0,-42.46153846153846
878.0,-98316.84615384616,14392.423076923076,-2343.0,2039.5384615384614,-60.0,20.0,-42.42307692307692
880.0,-98256.76923076923,14362.384615384615,-2343.0,2039.3076923076924,-60.0,20.0,-42.38461538461539
882.0,-98196.69230769231,14332.346153846154,-2343.0,2039.076923076923,-60.0,20.0,-42.34615384615385
884.0,-98136.61538461539,14302.307692307691,-2343.0,2038.8461538461538,-60.0,20.0,-42.30769230769231
886.0,-98076.53846153847,14272.26923076923,-2343.0,2038.6153846153845,-60.0,20.0,-42.26923076923077
888.0,-98016.46153846153,14242.23076923077,-2343.0,2038.3846153846155,-60.0,20.0,-42.23076923076923
890.0,-97956.38461538461,14212.192307692309,-2343.0,2038.1538461538462,-60.0,20.0,-42.19230769230769
892.0,-97896.30769230769,14182.153846153846,-2343.0,2037.923076923077,-60.0,20.0,-42.15384615384615
894.0,-97836.23076923077,14152.115384615385,-2343.0,2037.6923076923076,-60.0,20.0,-42.11538461538461
896.0,-97776.15384615384,14122.076923076924,-2343.0,2037.4615384615386,-60.0,20.0,-42.07692307692308
898.0,-97716.07692307692,14092.038461538461,-2343.0,2037.2307692307693,-60.0,20.0,-42.03846153846154
900.0,-97671.01923076923,14092.057692307691,-2312.9615384615386,2037.1538461538462,-60.019230769230774,20.01923076923077,-41.980769230769226
902.0,-97716.07692307692,14182.23076923077,-2222.846153846154,2037.6153846153845,-60.07692307692308,20.076923076923077,-41.92307692307692
904.0,-97746.11538461539,14242.346153846154,-2162.769230769231,2037.923076923077,-60.11538461538461,20.115384615384617,-41.88461538461539
906.0,-97776.15384615384,14302.461538461539,-2102.6923076923076,2038.2307692307693,-60.15384615384615,20.153846153846153,-41.84615384615385
908.0,-97806.19230769231,14362.576923076924,-2042.6153846153845,2038.5384615384614,-60.19230769230769,20.192307692307693,-41.80769230769231
910.0,-97836.23076923077,14422.692307692309,-1982.5384615384614,2038.8461538461538,-60.23076923076923,20.23076923076923,-41.76923076923077
912.0,-97866.26923076923,14482.807692307691,-1922.4615384615386,2039.1538461538462,-60.26923076923077,20.26923076923077,-41.73076923076923
914.0,-97896.30769230769,14542.923076923076,-1862.3846153846152,2039.4615384615386,-60.30769230769231,20.307692307692307,-41.69230769230769
916.0,-97926.34615384616,14603.038461538461,-1802.3076923076924,2039.7692307692307,-60.34615384615385,20.346153846153847,-41.65384615384615
918.0,-97956.38461538461,14663.153846153846,-1742.230769230769,2040.076923076923,-60.38461538461539,20.384615384615383,-41.61538461538461
920.0,-97986.42307692308,14723.26923076923,-1682.1538461538462,2040.3846153846155,-60.42307692307692,20.423076923076923,-41.57692307692308
922.0,-98016.46153846153,14783.384615384615,-1622.076923076923,2040.6923076923076,-60.46153846153846,20.46153846153846,-41.53846153846154
924.0,-98046.5,14843.5,-1562.0,2041.0,-60.5,20.5,-41.5
926.0,-98076.53846153847,14903.615384615385,-1501.923076923077,2041.3076923076924,-60.53846153846154,20.53846153846154,-41.46153846153846
928.0,-98106.57692307692,14963.73076923077,-1441.8461538461538,2041.6153846153845,-60.57692307692308,20.576923076923077,-41.42307692307692
930.0,-98136.61538461539,15023.846153846154,-1381.7692307692307,2041.923076923077,-60.61538461538461,20.615384615384617,-41.38461538461539
932.0,-98166.65384615384,15083.961538461539,-1321.6923076923076,2042.2307692307693,-60.65384615384615,20.653846153846153,-41.34615384615385
934.0,-98196.69230769231,15144.076923076924,-1261.6153846153845,2042.5384615384614,-60.69230769230769,20.692307692307693,-41.30769230769231
936.0,-98226.73076923077,15204.192307692309,-1201.5384615384614,2042.8461538461538,-60.73076923076923,20.73076923076923,-41.26923076923077
938.0,-98256.76923076923,15264.307692307691,-1141.4615384615383,2043.1538461538462,-60.76923076923077,20.76923076923077,-41.23076923076923
940.0,-98286.80769230769,15324.423076923076,-1081.3846153846152,2043.4615384615386,-60.80769230769231,20.807692307692307,-41.19230769230769
942.0,-98316.84615384616,15384.538461538461,-1021.3076923076922,2043.7692307692307,-60.84615384615385,20.846153846153847,-41.15384615384615
944.0,-98346.88461538461,15444.653846153846,-961.230769230769,2044.076923076923,-60.88461538461539,20.884615384615383,-41.11538461538461
946.0,-98376.92307692308,15504.76923076923,-901.1538461538462,2044.3846153846155,-60.92307692307692,20.923076923076923,-41.07692307692308
948.0,-98406.96153846153,15564.884615384615,-841.0769230769231,2044.6923076923076,-60.96153846153846,20.96153846153846,-41.03846153846154
950.0,-98437.0,15640.01923076923,-811.0384615384615,2044.7115384615386,-60.980769230769226,21.0,-40.980769230769226
952.0,-98437.0,15685.076923076924,-901.1538461538462,2043.8461538461538,-60.92307692307692,21.0,-40.92307692307692
954.0,-98437.0,15715.115384615385,-961.2307692307693,2043.2692307692307,-60.88461538461539,21.0,-40.88461538461539
956.0,-98437.0,15745.153846153846,-1021.3076923076924,2042.6923076923076,-60.84615384615385,21.0,-40.84615384615385
958.0,-98437.0,15775.192307692309,-1081.3846153846155,2042.1153846153845,-60.80769230769231,21.0,-40.80769230769231
960.0,-98437.0,15805.23076923077,-1141.4615384615386,2041.5384615384614,-60.76923076923077,21.0,-40.76923076923077
962.0,-98437.0,15835.26923076923,-1201.5384615384614,2040.9615384615386,-60.73076923076923,21.0,-40.73076923076923
964.0,-98437.0,15865.307692307691,-1261.6153846153848,2040.3846153846155,-60.69230769230769,21.0,-40.69230769230769
966.0,-98437.0,15895.346153846154,-1321.6923076923076,2039.8076923076924,-60.65384615384615,21.0,-40.65384615384615
968.0,-98437.0,15925.384615384615,-1381.769230769231,2039.2307692307693,-60.61538461538461,21.0,-40.61538461538461
970.0,-98437.0,15955.423076923076,-1441.8461538461538,2038.6538461538462,-60.57692307692308,21.0,-40.57692307692308
972.0,-98437.0,15985.461538461539,-1501.923076923077,2038.076923076923,-60.53846153846154,21.0,-40.53846153846154
974.0,-98437.0,16015.5,-1562.0,2037.5,-60.5,21.0,-40.5
976.0,-98437.0,16045.538461538461,-1622.076923076923,2036.923076923077,-60.46153846153846,21.0,-40.46153846153846
978.0,-98437.0,16075.576923076924,-1682.1538461538462,2036.3461538461538,-60.42307692307692,21.0,-40.42307692307692
980.0,-98437.0,16105.615384615385,-1742.2307692307693,2035.7692307692307,-60.38461538461539,21.0,-40.38461538461539
982.0,-98437.0,16135.653846153846,-1802.3076923076924,2035.1923076923076,-60.34615384615385,21.0,-40.34615384615385
984.0,-98437.0,16165.692307692309,-1862.3846153846155,2034.6153846153845,-60.30769230769231,21.0,-40.30769230769231
986.0,-98437.0,16195.73076923077,-1922.4615384615386,2034.0384615384614,-60.26923076923077,21.0,-40.26923076923077
988.0,-98437.0,16225.76923076923,-1982.5384615384617,2033.4615384615386,-60.23076923076923,21.0,-40.23076923076923
990.0,-98437.0,16255.807692307691,-2042.6153846153848,2032.8846153846155,-60.19230769230769,21.0,-40.19230769230769
992.0,-98437.0,16285.846153846154,-2102.6923076923076,2032.3076923076924,-60.15384615384615,21.0,-40.15384615384615
994.0,-98437.0,16315.884615384615,-2162.769230769231,2031.7307692307693,-60.11538461538461,21.0,-40.11538461538461
996.0,-98437.0,16345.923076923076,-2222.846153846154,2031.1538461538462,-60.07692307692308,21.0,-40.07692307692308
998.0,-98437.0,16375.961538461539,-2282.923076923077,2030.576923076923,-60.03846153846154,21.0,-40.03846153846154
1000.0,-98421.98076923077,16390.98076923077,-2312.9615384615386,2030.0576923076924,-60.019230769230774,21.0,-39.96153846153846
1002.0,-98376.92307692308,16345.923076923076,-2222.846153846154,2030.2307692307693,-60.07692307692308,21.0,-39.84615384615385
1004.0,-98346.88461538461,16315.884615384615,-2162.769230769231,2030.3461538461538,-60.11538461538461,21.0,-39.76923076923077
1006.0,-98316.84615384616,16285.846153846154,-2102.6923076923076,2030.4615384615386,-60.15384615384615,21.0,-39.69230769230769
1008.0,-98286.80769230769,16255.807692307691,-2042.6153846153845,2030.576923076923,-60.19230769230769,21.0,-39.61538461538461
1010.0,-98256.76923076923,16225.76923076923,-1982.5384615384614,2030.6923076923076,-60.23076923076923,21.0,-39.53846153846154
1012.0,-98226.73076923077,16195.73076923077,-1922.4615384615386,2030.8076923076924,-60.26923076923077,21.0,-39.46153846153846
1014.0,-98196.69230769231,16165.692307692309,-1862.3846153846152,2030.923076923077,-60.30769230769231,21.0,-39.38461538461539
1016.0,-98166.65384615384,16135.653846153846,-1802.3076923076924,2031.0384615384614,-60.34615384615385,21.0,-39.30769230769231
1018.0,-98136.61538461539,16105.615384615385,-1742.230769230769,2031.1538461538462,-60.38461538461539,21.0,-39.23076923076923
1020.0,-98106.57692307692,16075.576923076924,-1682.1538461538462,2031.2692307692307,-60.42307692307692,21.0,-39.15384615384615
1022.0,-98076.53846153847,16045.538461538461,-1622.076923076923,2031.3846153846155,-60.46153846153846,21.0,-39.07692307692308
1024.0,-98046.5,16015.5,-1562.0,2031.5,-60.5,21.0,-39.0
1026.0,-98016.46153846153,15985.461538461539,-1501.923076923077,2031.6153846153845,-60.53846153846154,21.0,-38.92307692307692
1028.0,-97986.42307692308,15955.423076923076,-1441.8461538461538,2031.7307692307693,-60.57692307692308,21.0,-38.84615384615385
1030.0,-97956.38461538461,15925.384615384615,-1381.7692307692307,2031.8461538461538,-60.61538461538461,21.0,-38.76923076923077
1032.0,-97926.34615384616,15895.346153846154,-1321.6923076923076,2031.9615384615386,-60.65384615384615,21.0,-38.69230769230769
1034.0,-97896.30769230769,15865.307692307691,-1261.6153846153845,2032.076923076923,-60.69230769230769,21.0,-38.61538461538461
1036.0,-97866.26923076923,15835.26923076923,-1201.5384615384614,2032.1923076923076,-60.73076923076923,21.0,-38.53846153846154
1038.0,-97836.23076923077,15805.23076923077,-1141.4615384615383,2032.3076923076924,-60.76923076923077,21.0,-38.46153846153846
1040.0,-97806.19230769231,15775.192307692309,-1081.3846153846152,2032.423076923077,-60.80769230769231,21.0,-38.38461538461539
1042.0,-97776.15384615384,15745.153846153846,-1021.3076923076922,2032.5384615384614,-60.84615384615385,21.0,-38.30769230769231
1044.0,-97746.11538461539,15715.115384615385,-961.230769230769,2032.6538461538462,-60.88461538461539,21.0,-38.23076923076923
1046.0,-97716.07692307692,15685.076923076924,-901.1538461538462,2032.7692307692307,-60.92307692307692,21.0,-38.15384615384615
1048.0,-97686.03846153847,15655.038461538461,-841.0769230769231,2032.8846153846155,-60.96153846153846,21.0,-38.07692307692308
1050.0,-97640.98076923077,15625.0,-796.0192307692307,2033.2307692307693,-60.980769230769226,21.03846153846154,-37.96153846153846
1052.0,-97595.92307692308,15625.0,-841.0769230769231,2033.923076923077,-60.92307692307692,21.153846153846153,-37.84615384615385
1054.0,-97565.88461538461,15625.0,-871.1153846153846,2034.3846153846155,-60.88461538461539,21.23076923076923,-37.76923076923077
1056.0,-97535.84615384616,15625.0,-901.1538461538462,2034.8461538461538,-60.84615384615385,21.307692307692307,-37.69230769230769
1058.0,-97505.80769230769,15625.0,-931.1923076923077,2035.3076923076924,-60.80769230769231,21.384615384615383,-37.61538461538461
1060.0,-97475.76923076923,15625.0,-961.2307692307693,2035.7692307692307,-60.76923076923077,21.46153846153846,-37.53846153846154
1062.0,-97445.73076923077,15625.0,-991.2692307692307,2036.2307692307693,-60.73076923076923,21.53846153846154,-37.46153846153846
1064.0,-97415.69230769231,15625.0,-1021.3076923076924,2036.6923076923076,-60.69230769230769,21.615384615384617,-37.38461538461539
1066.0,-97385.65384615384,15625.0,-1051.3461538461538,2037.1538461538462,-60.65384615384615,21.692307692307693,-37.30769230769231
1068.0,-97355.61538461539,15625.0,-1081.3846153846155,2037.6153846153845,-60.61538461538461,21.76923076923077,-37.23076923076923
1070.0,-97325.57692307692,15625.0,-1111.423076923077,2038.076923076923,-60.57692307692308,21.846153846153847,-37.15384615384615
1072.0,-97295.53846153847,15625.0,-1141.4615384615386,2038.5384615384614,-60.53846153846154,21.923076923076923,-37.07692307692308
1074.0,-97265.5,15625.0,-1171.5,2039.0,-60.5,22.0,-37.0
1076.0,-97235.46153846153,15625.0,-1201.5384615384614,2039.4615384615386,-60.46153846153846,22.076923076923077,-36.92307692307692
1078.0,-97205.42307692308,15625.0,-1231.576923076923,2039.923076923077,-60.42307692307692,22.153846153846153,-36.84615384615385
1080.0,-97175.38461538461,15625.0,-1261.6153846153848,2040.3846153846155,-60.38461538461539,22.23076923076923,-36.76923076923077
1082.0,-97145.34615384616,15625.0,-1291.6538461538462,2040.8461538461538,-60.34615384615385,22.307692307692307,-36.69230769230769
1084.0,-97115.30769230769,15625.0,-1321.6923076923076,2041.3076923076924,-60.30769230769231,22.384615384615383,-36.61538461538461
1086.0,-97085.26923076923,15625.0,-1351.7307692307693,2041.7692307692307,-60.26923076923077,22.46153846153846,-36.53846153846154
1088.0,-97055.23076923077,15625.0,-1381.769230769231,2042.2307692307693,-60.23076923076923,22.53846153846154,-36.46153846153846
1090.0,-97025.19230769231,15625.0,-1411.8076923076924,2042.6923076923076,-60.19230769230769,22.615384615384617,-36.38461538461539
1092.0,-96995.15384615384,15625.0,-1441.8461538461538,2043.1538461538462,-60.15384615384615,22.692307692307693,-36.30769230769231
1094.0,-96965.11538461539,15625.0,-1471.8846153846155,2043.6153846153845,-60.11538461538461,22.76923076923077,-36.23076923076923
1096.0,-96935.07692307692,15625.0,-1501.923076923077,2044.076923076923,-60.07692307692308,22.846153846153847,-36.15384615384615
1098.0,-96905.03846153847,15625.0,-1531.9615384615386,2044.5384615384614,-60.03846153846154,22.923076923076923,-36.07692307692308
1100.0,-96890.01923076923,15625.0,-1546.9807692307693,2044.8461538461538,-59.980769230769226,23.0,-35.980769230769226
1102.0,-96935.07692307692,15625.0,-1501.923076923077,2044.3846153846155,-59.92307692307692,23.0,-35.92307692307692
1104.0,-96965.11538461539,15625.0,-1471.8846153846155,2044.076923076923,-59.88461538461539,23.0,-35.88461538461539
1106.0,-96995.15384615384,15625.0,-1441.8461538461538,2043.7692307692307,-59.84615384615385,23.0,-35.84615384615385
1108.0,-97025.19230769231,15625.0,-1411.8076923076924,2043.4615384615386,-59.80769230769231,23.0,-35.80769230769231
1110.0,-97055.23076923077,15625.0,-1381.7692307692307,2043.1538461538462,-59.76923076923077,23.0,-35.76923076923077
1112.0,-97085.26923076923,15625.0,-1351.7307692307693,2042.8461538461538,-59.73076923076923,23.0,-35.73076923076923
1114.0,-97115.30769230769,15625.0,-1321.6923076923076,2042.5384615384614,-59.69230769230769,23.0,-35.69230769230769
1116.0,-97145.34615384616,15625.0,-1291.6538461538462,2042.2307692307693,-59.65384615384615,23.0,-35.65384615384615
1118.0,-97175.38461538461,15625.0,-1261.6153846153845,2041.923076923077,-59.61538461538461,23.0,-35.61538461538461
1120.0,-97205.42307692308,15625.0,-1231.576923076923,2041.6153846153845,-59.57692307692308,23.0,-35.57692307692308
1122.0,-97235.46153846153,15625.0,-1201.5384615384614,2041.3076923076924,-59.53846153846154,23.0,-35.53846153846154
1124.0,-97265.5,15625.0,-1171.5,2041.0,-59.5,23.0,-35.5
1126.0,-97295.53846153847,15625.0,-1141.4615384615386,2040.6923076923076,-59.46153846153846,23.0,-35.46153846153846
1128.0,-97325.57692307692,15625.0,-1111.423076923077,2040.3846153846155,-59.42307692307692,23.0,-35.42307692307692
1130.0,-97355.61538461539,15625.0,-1081.3846153846152,2040.076923076923,-59.38461538461539,23.0,-35.38461538461539
1132.0,-97385.65384615384,15625.0,-1051.3461538461538,2039.7692307692307,-59.34615384615385,23.0,-35.34615384615385
1134.0,-97415.69230769231,15625.0,-1021.3076923076923,2039.4615384615386,-59.30769230769231,23.0,-35.30769230769231
1136.0,-97445.73076923077,15625.0,-991.2692307692307,2039.1538461538462,-59.26923076923077,23.0,-35.26923076923077
1138.0,-97475.76923076923,15625.0,-961.2307692307692,2038.8461538461538,-59.23076923076923,23.0,-35.23076923076923
1140.0,-97505.80769230769,15625.0,-931.1923076923076,2038.5384615384614,-59.19230769230769,23.0,-35.19230769230769
1142.0,-97535.84615384616,15625.0,-901.1538461538461,2038.2307692307693,-59.15384615384615,23.0,-35.15384615384615
1144.0,-97565.88461538461,15625.0,-871.1153846153845,2037.923076923077,-59.11538461538461,23.0,-35.11538461538461
1146.0,-97595.92307692308,15625.0,-841.0769230769231,2037.6153846153845,-59.07692307692308,23.0,-35.07692307692308
1148.0,-97625.96153846153,15625.0,-811.0384615384615,2037.3076923076924,-59.03846153846154,23.0,-35.03846153846154
1150.0,-97640.98076923077,15609.961538461539,-826.0769230769231,2036.9807692307693,-59.0,23.0,-34.96153846153846
1152.0,-97595.92307692308,15564.846153846154,-961.3076923076924,2036.923076923077,-59.0,23.0,-34.84615384615385
1154.0,-97565.88461538461,15534.76923076923,-1051.4615384615386,2036.8846153846155,-59.0,23.0,-34.76923076923077
1156.0,-97535.84615384616,15504.692307692309,-1141.6153846153848,2036.8461538461538,-59.0,23.0,-34.69230769230769
1158.0,-97505.80769230769,15474.615384615385,-1231.769230769231,2036.8076923076924,-59.0,23.0,-34.61538461538461
1160.0,-97475.76923076923,15444.538461538461,-1321.923076923077,2036.7692307692307,-59.0,23.0,-34.53846153846154
1162.0,-97445.73076923077,15414.461538461539,-1412.076923076923,2036.7307692307693,-59.0,23.0,-34.46153846153846
1164.0,-97415.69230769231,15384.384615384615,-1502.2307692307693,2036.6923076923076,-59.0,23.0,-34.38461538461539
1166.0,-97385.65384615384,15354.307692307691,-1592.3846153846155,2036.6538461538462,-59.0,23.0,-34.30769230769231
1168.0,-97355.61538461539,15324.23076923077,-1682.5384615384617,2036.6153846153845,-59.0,23.0,-34.23076923076923
1170.0,-97325.57692307692,15294.153846153846,-1772.6923076923076,2036.576923076923,-59.0,23.0,-34.15384615384615
1172.0,-97295.53846153847,15264.076923076924,-1862.8461538461538,2036.5384615384614,-59.0,23.0,-34.07692307692308
1174.0,-97265.5,15234.0,-1953.0,2036.5,-59.0,23.0,-34.0
1176.0,-97235.46153846153,15203.923076923076,-2043.1538461538462,2036.4615384615386,-59.0,23.0,-33.92307692307692
1178.0,-97205.42307692308,15173.846153846154,-2133.3076923076924,2036.423076923077,-59.0,23.0,-33.84615384615385
1180.0,-97175.38461538461,15143.76923076923,-2223.4615384615386,2036.3846153846155,-59.0,23.0,-33.76923076923077
1182.0,-97145.34615384616,15113.692307692309,-2313.6153846153848,2036.3461538461538,-59.0,23.0,-33.69230769230769
1184.0,-97115.30769230769,15083.615384615385,-2403.769230769231,2036.3076923076924,-59.0,23.0,-33.61538461538461
1186.0,-97085.26923076923,15053.538461538461,-2493.923076923077,2036.2692307692307,-59.0,23.0,-33.53846153846154
1188.0,-97055.23076923077,15023.461538461539,-2584.0769230769233,2036.2307692307693,-59.0,23.0,-33.46153846153846
1190.0,-97025.19230769231,14993.384615384615,-2674.2307692307695,2036.1923076923076,-59.0,23.0,-33.38461538461539
1192.0,-96995.15384615384,14963.307692307691,-2764.3846153846152,2036.1538461538462,-59.0,23.0,-33.30769230769231
1194.0,-96965.11538461539,14933.23076923077,-2854.538461538462,2036.1153846153845,-59.0,23.0,-33.23076923076923
1196.0,-96935.07692307692,14903.153846153846,-2944.6923076923076,2036.076923076923,-59.0,23.0,-33.15384615384615
1198.0,-96905.03846153847,14873.076923076924,-3034.846153846154,2036.0384615384614,-59.0,23.0,-33.07692307692308
1200.0,-96890.01923076923,14888.076923076922,-3094.9423076923076,2035.9038461538462,-58.980769230769226,23.03846153846154,-32.94230769230769
1202.0,-96935.07692307692,15023.307692307691,-3004.769230769231,2035.6153846153845,-58.92307692307692,23.153846153846153,-32.76923076923077
1204.0,-96965.11538461539,15113.461538461539,-2944.653846153846,2035.423076923077,-58.88461538461539,23.23076923076923,-32.65384615384615
1206.0,-96995.15384615384,15203.615384615385,-2884.5384615384614,2035.2307692307693,-58.84615384615385,23.307692307692307,-32.53846153846154
1208.0,-97025.19230769231,15293.76923076923,-2824.423076923077,2035.0384615384614,-58.80769230769231,23.384615384615383,-32.42307692307692
1210.0,-97055.23076923077,15383.923076923076,-2764.3076923076924,2034.8461538461538,-58.76923076923077,23.46153846153846,-32.30769230769231
1212.0,-97085.26923076923,15474.076923076924,-2704.1923076923076,2034.6538461538462,-58.73076923076923,23.53846153846154,-32.19230769230769
1214.0,-97115.30769230769,15564.23076923077,-2644.076923076923,2034.4615384615386,-58.69230769230769,23.615384615384617,-32.07692307692308
1216.0,-97145.34615384616,15654.384615384615,-2583.9615384615386,2034.2692307692307,-58.65384615384615,23.692307692307693,-31.96153846153846
1218.0,-97175.38461538461,15744.538461538461,-2523.846153846154,2034.076923076923,-58.61538461538461,23.76923076923077,-31.846153846153847
1220.0,-97205.42307692308,15834.692307692309,-2463.7307692307695,2033.8846153846155,-58.57692307692308,23.846153846153847,-31.73076923076923
1222.0,-97235.46153846153,15924.846153846154,-2403.6153846153848,2033.6923076923076,-58.53846153846154,23.923076923076923,-31.615384615384617
1224.0,-97265.5,16015.0,-2343.5,2033.5,-58.5,24.0,-31.5
1226.0,-97295.53846153847,16105.153846153846,-2283.3846153846152,2033.3076923076924,-58.46153846153846,24.076923076923077,-31.384615384615383
1228.0,-97325.57692307692,16195.307692307691,-2223.269230769231,2033.1153846153845,-58.42307692307692,24.153846153846153,-31.26923076923077
1230.0,-97355.61538461539,16285.461538461539,-2163.153846153846,2032.923076923077,-58.38461538461539,24.23076923076923,-31.153846153846153
1232.0,-97385.65384615384,16375.615384615385,-2103.0384615384614,2032.7307692307693,-58.34615384615385,24.307692307692307,-31.03846153846154
1234.0,-97415.69230769231,16465.76923076923,-2042.923076923077,2032.5384615384614,-58.30769230769231,24.384615384615383,-30.923076923076923
1236.0,-97445.73076923077,16555.923076923078,-1982.8076923076924,2032.3461538461538,-58.26923076923077,24.46153846153846,-30.807692307692307
1238.0,-97475.76923076923,16646.076923076922,-1922.6923076923076,2032.1538461538462,-58.23076923076923,24.53846153846154,-30.692307692307693
1240.0,-97505.80769230769,16736.23076923077,-1862.576923076923,2031.9615384615386,-58.19230769230769,24.615384615384617,-30.576923076923077
1242.0,-97535.84615384616,16826.384615384617,-1802.4615384615386,2031.7692307692307,-58.15384615384615,24.692307692307693,-30.46153846153846
1244.0,-97565.88461538461,16916.53846153846,-1742.3461538461538,2031.576923076923,-58.11538461538461,24.76923076923077,-30.346153846153847
1246.0,-97595.92307692308,17006.69230769231,-1682.2307692307693,2031.3846153846155,-58.07692307692308,24.846153846153847,-30.23076923076923
1248.0,-97625.96153846153,17096.846153846152,-1622.1153846153848,2031.1923076923076,-58.03846153846154,24.923076923076923,-30.115384615384617
1250.0,-97656.0,17187.0,-1562.0,2031.326923076923,-58.0,25.0,-29.96153846153846
1252.0,-97656.0,17187.0,-1562.0,2032.3076923076924,-58.0,25.0,-29.846153846153847
1254.0,-97656.0,17187.0,-1562.0,2032.9615384615386,-58.0,25.0,-29.76923076923077
1256.0,-97656.0,17187.0,-1562.0,2033.6153846153845,-58.0,25.0,-29.692307692307693
1258.0,-97656.0,17187.0,-1562.0,2034.2692307692307,-58.0,25.0,-29.615384615384617
1260.0,-97656.0,17187.0,-1562.0,2034.923076923077,-58.0,25.0,-29.53846153846154
1262.0,-97656.0,17187.0,-1562.0,2035.576923076923,-58.0,25.0,-29.46153846153846
1264.0,-97656.0,17187.0,-1562.0,2036.2307692307693,-58.0,25.0,-29.384615384615383
1266.0,-97656.0,17187.0,-1562.0,2036.8846153846155,-58.0,25.0,-29.307692307692307
1268.0,-97656.0,17187.0,-1562.0,2037.5384615384614,-58.0,25.0,-29.23076923076923
1270.0,-97656.0,17187.0,-1562.0,2038.1923076923076,-58.0,25.0,-29.153846153846153
1272.0,-97656.0,17187.0,-1562.0,2038.8461538461538,-58.0,25.0,-29.076923076923077
1274.0,-97656.0,17187.0,-1562.0,2039.5,-58.0,25.0,-29.0
1276.0,-97656.0,17187.0,-1562.0,2040.1538461538462,-58.0,25.0,-28.923076923076923
1278.0,-97656.0,17187.0,-1562.0,2040.8076923076924,-58.0,25.0,-28.846153846153847
1280.0,-97656.0,17187.0,-1562.0,2041.4615384615386,-58.0,25.0,-28.76923076923077
1282.0,-97656.0,17187.0,-1562.0,2042.1153846153845,-58.0,25.0,-28.692307692307693
1284.0,-97656.0,17187.0,-1562.0,2042.7692307692307,-58.0,25.0,-28.615384615384617
1286.0,-97656.0,17187.0,-1562.0,2043.423076923077,-58.0,25.0,-28.53846153846154
1288.0,-97656.0,17187.0,-1562.0,2044.076923076923,-58.0,25.0,-28.46153846153846
1290.0,-97656.0,17187.0,-1562.0,2044.7307692307693,-58.0,25.0,-28.384615384615383
1292.0,-97656.0,17187.0,-1562.0,2045.3846153846155,-58.0,25.0,-28.307692307692307
1294.0,-97656.0,17187.0,-1562.0,2046.0384615384614,-58.0,25.0,-28.23076923076923
1296.0,-97656.0,17187.0,-1562.0,2046.6923076923076,-58.0,25.0,-28.153846153846153
1298.0,-97656.0,17187.0,-1562.0,2047.3461538461538,-58.0,25.0,-28.076923076923077
1300.0,-97640.98076923077,17187.0,-1546.9807692307693,2047.8846153846152,-58.0,24.98076923076923,-27.98076923076923
1302.0,-97595.92307692308,17187.0,-1501.923076923077,2047.5384615384614,-58.0,24.923076923076923,-27.923076923076923
1304.0,-97565.88461538461,17187.0,-1471.8846153846155,2047.3076923076924,-58.0,24.884615384615383,-27.884615384615383
1306.0,-97535.84615384616,17187.0,-1441.8461538461538,2047.076923076923,-58.0,24.846153846153847,-27.846153846153847
1308.0,-97505.80769230769,17187.0,-1411.8076923076924,2046.8461538461538,-58.0,24.807692307692307,-27.807692307692307
1310.0,-97475.76923076923,17187.0,-1381.7692307692307,2046.6153846153845,-58.0,24.76923076923077,-27.76923076923077
1312.0,-97445.73076923077,17187.0,-1351.7307692307693,2046.3846153846155,-58.0,24.73076923076923,-27.73076923076923
1314.0,-97415.69230769231,17187.0,-1321.6923076923076,2046.1538461538462,-58.0,24.692307692307693,-27.692307692307693
1316.0,-97385.65384615384,17187.0,-1291.6538461538462,2045.923076923077,-58.0,24.653846153846153,-27.653846153846153
1318.0,-97355.61538461539,17187.0,-1261.6153846153845,2045.6923076923076,-58.0,24.615384615384617,-27.615384615384617
1320.0,-97325.57692307692,17187.0,-1231.576923076923,2045.4615384615386,-58.0,24.576923076923077,-27.576923076923077
1322.0,-97295.53846153847,17187.0,-1201.5384615384614,2045.2307692307693,-58.0,24.53846153846154,-27.53846153846154
1324.0,-97265.5,17187.0,-1171.5,2045.0,-58.0,24.5,-27.5
1326.0,-97235.46153846153,17187.0,-1141.4615384615386,2044.7692307692307,-58.0,24.46153846153846,-27.46153846153846
1328.0,-97205.42307692308,17187.0,-1111.423076923077,2044.5384615384614,-58.0,24.423076923076923,-27.423076923076923
1330.0,-97175.38461538461,17187.0,-1081.3846153846152,2044.3076923076924,-58.0,24.384615384615383,-27.384615384615383
1332.0,-97145.34615384616,17187.0,-1051.3461538461538,2044.076923076923,-58.0,24.346153846153847,-27.346153846153847
1334.0,-97115.30769230769,17187.0,-1021.3076923076923,2043.8461538461538,-58.0,24.307692307692307,-27.307692307692307
1336.0,-97085.26923076923,17187.0,-991.2692307692307,2043.6153846153845,-58.0,24.26923076923077,-27.26923076923077
1338.0,-97055.23076923077,17187.0,-961.2307692307692,2043.3846153846155,-58.0,24.23076923076923,-27.23076923076923
1340.0,-97025.19230769231,17187.0,-931.1923076923076,2043.1538461538462,-58.0,24.192307692307693,-27.192307692307693
1342.0,-96995.15384615384,17187.0,-901.1538461538461,2042.923076923077,-58.0,24.153846153846153,-27.153846153846153
1344.0,-96965.11538461539,17187.0,-871.1153846153845,2042.6923076923076,-58.0,24.115384615384617,-27.115384615384617
1346.0,-96935.07692307692,17187.0,-841.0769230769231,2042.4615384615386,-58.0,24.076923076923077,-27.076923076923077
1348.0,-96905.03846153847,17187.0,-811.0384615384615,2042.2307692307693,-58.0,24.03846153846154,-27.03846153846154
1350.0,-96905.03846153847,17171.98076923077,-796.0192307692307,2041.9807692307693,-58.019230769230774,24.01923076923077,-26.96153846153846
1352.0,-96995.15384615384,17126.923076923078,-841.0769230769231,2041.923076923077,-58.07692307692308,24.076923076923077,-26.846153846153847
1354.0,-97055.23076923077,17096.884615384617,-871.1153846153846,2041.8846153846155,-58.11538461538461,24.115384615384617,-26.76923076923077
1356.0,-97115.30769230769,17066.846153846152,-901.1538461538462,2041.8461538461538,-58.15384615384615,24.153846153846153,-26.692307692307693
1358.0,-97175.38461538461,17036.80769230769,-931.1923076923077,2041.8076923076924,-58.19230769230769,24.192307692307693,-26.615384615384617
1360.0,-97235.46153846153,17006.76923076923,-961.2307692307693,2041.7692307692307,-58.23076923076923,24.23076923076923,-26.53846153846154
1362.0,-97295.53846153847,16976.73076923077,-991.2692307692307,2041.7307692307693,-58.26923076923077,24.26923076923077,-26.46153846153846
1364.0,-97355.61538461539,16946.69230769231,-1021.3076923076924,2041.6923076923076,-58.30769230769231,24.307692307692307,-26.384615384615383
1366.0,-97415.69230769231,16916.653846153848,-1051.3461538461538,2041.6538461538462,-58.34615384615385,24.346153846153847,-26.307692307692307
1368.0,-97475.76923076923,16886.615384615383,-1081.3846153846155,2041.6153846153845,-58.38461538461539,24.384615384615383,-26.23076923076923
1370.0,-97535.84615384616,16856.576923076922,-1111.423076923077,2041.576923076923,-58.42307692307692,24.423076923076923,-26.153846153846153
1372.0,-97595.92307692308,16826.53846153846,-1141.4615384615386,2041.5384615384614,-58.46153846153846,24.46153846153846,-26.076923076923077
1374.0,-97656.0,16796.5,-1171.5,2041.5,-58.5,24.5,-26.0
1376.0,-97716.07692307692,16766.46153846154,-1201.5384615384614,2041.4615384615386,-58.53846153846154,24.53846153846154,-25.923076923076923
1378.0,-97776.15384615384,16736.423076923078,-1231.576923076923,2041.423076923077,-58.57692307692308,24.576923076923077,-25.846153846153847
1380.0,-97836.23076923077,16706.384615384617,-1261.6153846153848,2041.3846153846155,-58.61538461538461,24.615384615384617,-25.76923076923077
1382.0,-97896.30769230769,16676.346153846152,-1291.6538461538462,2041.3461538461538,-58.65384615384615,24.653846153846153,-25.692307692307693
1384.0,-97956.38461538461,16646.30769230769,-1321.6923076923076,2041.3076923076924,-58.69230769230769,24.692307692307693,-25.615384615384617
1386.0,-98016.46153846153,16616.26923076923,-1351.7307692307693,2041.2692307692307,-58.73076923076923,24.73076923076923,-25.53846153846154
1388.0,-98076.53846153847,16586.23076923077,-1381.769230769231,2041.2307692307693,-58.76923076923077,24.76923076923077,-25.46153846153846
1390.0,-98136.61538461539,16556.19230769231,-1411.8076923076924,2041.1923076923076,-58.80769230769231,24.807692307692307,-25.384615384615383
1392.0,-98196.69230769231,16526.153846153848,-1441.8461538461538,2041.1538461538462,-58.84615384615385,24.846153846153847,-25.307692307692307
1394.0,-98256.76923076923,16496.115384615383,-1471.8846153846155,2041.1153846153845,-58.88461538461539,24.884615384615383,-25.23076923076923
1396.0,-98316.84615384616,16466.076923076922,-1501.923076923077,2041.076923076923,-58.92307692307692,24.923076923076923,-25.153846153846153
1398.0,-98376.92307692308,16436.03846153846,-1531.9615384615386,2041.0384615384614,-58.96153846153846,24.96153846153846,-25.076923076923077
1400.0,-98437.0,16436.03846153846,-1546.9807692307693,2041.0192307692307,-59.0,25.0,-24.96153846153846
1402.0,-98437.0,16526.153846153848,-1501.923076923077,2041.076923076923,-59.0,25.0,-24.846153846153847
1404.0,-98437.0,16586.23076923077,-1471.8846153846155,2041.1153846153845,-59.0,25.0,-24.76923076923077
1406.0,-98437.0,16646.30769230769,-1441.8461538461538,2041.1538461538462,-59.0,25.0,-24.692307692307693
1408.0,-98437.0,16706.384615384617,-1411.8076923076924,2041.1923076923076,-59.0,25.0,-24.615384615384617
1410.0,-98437.0,16766.46153846154,-1381.7692307692307,2041.2307692307693,-59.0,25.0,-24.53846153846154
1412.0,-98437.0,16826.53846153846,-1351.7307692307693,2041.2692307692307,-59.0,25.0,-24.46153846153846
1414.0,-98437.0,16886.615384615383,-1321.6923076923076,2041.3076923076924,-59.0,25.0,-24.384615384615383
1416.0,-98437.0,16946.69230769231,-1291.6538461538462,2041.3461538461538,-59.0,25.0,-24.307692307692307
1418.0,-98437.0,17006.76923076923,-1261.6153846153845,2041.3846153846155,-59.0,25.0,-24.23076923076923
1420.0,-98437.0,17066.846153846152,-1231.576923076923,2041.423076923077,-59.0,25.0,-24.153846153846153
1422.0,-98437.0,17126.923076923078,-1201.5384615384614,2041.4615384615386,-59.0,25.0,-24.076923076923077
1424.0,-98437.0,17187.0,-1171.5,2041.5,-59.0,25.0,-24.0
1426.0,-98437.0,17247.076923076922,-1141.4615384615386,2041.5384615384614,-59.0,25.0,-23.923076923076923
1428.0,-98437.0,17307.153846153848,-1111.423076923077,2041.576923076923,-59.0,25.0,-23.846153846153847
1430.0,-98437.0,17367.23076923077,-1081.3846153846152,2041.6153846153845,-59.0,25.0,-23.76923076923077
1432.0,-98437.0,17427.30769230769,-1051.3461538461538,2041.6538461538462,-59.0,25.0,-23.692307692307693
1434.0,-98437.0,17487.384615384617,-1021.3076923076923,2041.6923076923076,-59.0,25.0,-23.615384615384617
1436.0,-98437.0,17547.46153846154,-991.2692307692307,2041.7307692307693,-59.0,25.0,-23.53846153846154
1438.0,-98437.0,17607.53846153846,-961.2307692307692,2041.7692307692307,-59.0,25.0,-23.46153846153846
1440.0,-98437.0,17667.615384615383,-931.1923076923076,2041.8076923076924,-59.0,25.0,-23.384615384615383
1442.0,-98437.0,17727.69230769231,-901.1538461538461,2041.8461538461538,-59.0,25.0,-23.307692307692307
1444.0,-98437.0,17787.76923076923,-871.1153846153845,2041.8846153846155,-59.0,25.0,-23.23076923076923
1446.0,-98437.0,17847.846153846152,-841.0769230769231,2041.923076923077,-59.0,25.0,-23.153846153846153
1448.0,-98437.0,17907.923076923078,-811.0384615384615,2041.9615384615386,-59.0,25.0,-23.076923076923077
1450.0,-98452.01923076923,17952.98076923077,-811.0384615384615,2041.8653846153848,-58.980769230769226,24.98076923076923,-22.96153846153846
1452.0,-98497.07692307692,17907.923076923078,-901.1538461538462,2041.4615384615386,-58.92307692307692,24.923076923076923,-22.846153846153847
1454.0,-98527.11538461539,17877.884615384617,-961.2307692307693,2041.1923076923076,-58.88461538461539,24.884615384615383,-22.76923076923077
1456.0,-98557.15384615384,17847.846153846152,-1021.3076923076924,2040.923076923077,-58.84615384615385,24.846153846153847,-22.692307692307693
1458.0,-98587.19230769231,17817.80769230769,-1081.3846153846155,2040.6538461538462,-58.80769230769231,24.807692307692307,-22.615384615384617
1460.0,-98617.23076923077,17787.76923076923,-1141.4615384615386,2040.3846153846155,-58.76923076923077,24.76923076923077,-22.53846153846154
1462.0,-98647.26923076923,17757.73076923077,-1201.5384615384614,2040.1153846153845,-58.73076923076923,24.73076923076923,-22.46153846153846
1464.0,-98677.30769230769,17727.69230769231,-1261.6153846153848,2039.8461538461538,-58.69230769230769,24.692307692307693,-22.384615384615383
1466.0,-98707.34615384616,17697.653846153848,-1321.6923076923076,2039.576923076923,-58.65384615384615,24.653846153846153,-22.307692307692307
1468.0,-98737.38461538461,17667.615384615383,-1381.769230769231,2039.3076923076924,-58.61538461538461,24.615384615384617,-22.23076923076923
1470.0,-98767.42307692308,17637.576923076922,-1441.8461538461538,2039.0384615384614,-58.57692307692308,24.576923076923077,-22.153846153846153
1472.0,-98797.46153846153,17607.53846153846,-1501.923076923077,2038.7692307692307,-58.53846153846154,24.53846153846154,-22.076923076923077
1474.0,-98827.5,17577.5,-1562.0,2038.5,-58.5,24.5,-22.0
1476.0,-98857.53846153847,17547.46153846154,-1622.076923076923,2038.2307692307693,-58.46153846153846,24.46153846153846,-21.923076923076923
1478.0,-98887.57692307692,17517.423076923078,-1682.1538461538462,2037.9615384615386,-58.42307692307692,24.423076923076923,-21.846153846153847
1480.0,-98917.61538461539,17487.384615384617,-1742.2307692307693,2037.6923076923076,-58.38461538461539,24.384615384615383,-21.76923076923077
1482.0,-98947.65384615384,17457.346153846152,-1802.3076923076924,2037.423076923077,-58.34615384615385,24.346153846153847,-21.692307692307693
1484.0,-98977.69230769231,17427.30769230769,-1862.3846153846155,2037.1538461538462,-58.30769230769231,24.307692307692307,-21.615384615384617
1486.0,-99007.73076923077,17397.26923076923,-1922.4615384615386,2036.8846153846155,-58.26923076923077,24.26923076923077,-21.53846153846154
1488.0,-99037.76923076923,17367.23076923077,-1982.5384615384617,2036.6153846153845,-58.23076923076923,24.23076923076923,-21.46153846153846
1490.0,-99067.80769230769,17337.19230769231,-2042.6153846153848,2036.3461538461538,-58.19230769230769,24.192307692307693,-21.384615384615383
1492.0,-99097.84615384616,17307.153846153848,-2102.6923076923076,2036.076923076923,-58.15384615384615,24.153846153846153,-21.307692307692307
1494.0,-99127.88461538461,17277.115384615383,-2162.769230769231,2035.8076923076924,-58.11538461538461,24.115384615384617,-21.23076923076923
1496.0,-99157.92307692308,17247.076923076922,-2222.846153846154,2035.5384615384614,-58.07692307692308,24.076923076923077,-21.153846153846153
1498.0,-99187.96153846153,17217.03846153846,-2282.923076923077,2035.2692307692307,-58.03846153846154,24.03846153846154,-21.076923076923077
1500.0,-99218.0,17202.01923076923,-2327.9807692307695,2035.25,-58.03846153846154,23.98076923076923,-20.942307692307693
1502.0,-99218.0,17247.076923076922,-2282.923076923077,2036.0,-58.15384615384615,23.923076923076923,-20.76923076923077
1504.0,-99218.0,17277.115384615383,-2252.8846153846152,2036.5,-58.23076923076923,23.884615384615383,-20.653846153846153
1506.0,-99218.0,17307.153846153848,-2222.846153846154,2037.0,-58.30769230769231,23.846153846153847,-20.53846153846154
1508.0,-99218.0,17337.19230769231,-2192.8076923076924,2037.5,-58.38461538461539,23.807692307692307,-20.423076923076923
1510.0,-99218.0,17367.23076923077,-2162.769230769231,2038.0,-58.46153846153846,23.76923076923077,-20.307692307692307
1512.0,-99218.0,17397.26923076923,-2132.730769230769,2038.5,-58.53846153846154,23.73076923076923,-20.192307692307693
1514.0,-99218.0,17427.30769230769,-2102.6923076923076,2039.0,-58.61538461538461,23.692307692307693,-20.076923076923077
1516.0,-99218.0,17457.346153846152,-2072.653846153846,2039.5,-58.69230769230769,23.653846153846153,-19.96153846153846
1518.0,-99218.0,17487.384615384617,-2042.6153846153845,2040.0,-58.76923076923077,23.615384615384617,-19.846153846153847
1520.0,-99218.0,17517.423076923078,-2012.576923076923,2040.5,-58.84615384615385,23.576923076923077,-19.73076923076923
1522.0,-99218.0,17547.46153846154,-1982.5384615384614,2041.0,-58.92307692307692,23.53846153846154,-19.615384615384617
1524.0,-99218.0,17577.5,-1952.5,2041.5,-59.0,23.5,-19.5
1526.0,-99218.0,17607.53846153846,-1922.4615384615386,2042.0,-59.07692307692308,23.46153846153846,-19.384615384615383
1528.0,-99218.0,17637.576923076922,-1892.423076923077,2042.5,-59.15384615384615,23.423076923076923,-19.26923076923077
1530.0,-99218.0,17667.615384615383,-1862.3846153846152,2043.0,-59.23076923076923,23.384615384615383,-19.153846153846153
1532.0,-99218.0,17697.653846153848,-1832.3461538461538,2043.5,-59.30769230769231,23.346153846153847,-19.03846153846154
1534.0,-99218.0,17727.69230769231,-1802.3076923076924,2044.0,-59.38461538461539,23.307692307692307,-18.923076923076923
1536.0,-99218.0,17757.73076923077,-1772.2692307692307,2044.5,-59.46153846153846,23.26923076923077,-18.807692307692307
1538.0,-99218.0,17787.76923076923,-1742.230769230769,2045.0,-59.53846153846154,23.23076923076923,-18.692307692307693
1540.0,-99218.0,17817.80769230769,-1712.1923076923076,2045.5,-59.61538461538461,23.192307692307693,-18.576923076923077
1542.0,-99218.0,17847.846153846152,-1682.1538461538462,2046.0,-59.69230769230769,23.153846153846153,-18.46153846153846
1544.0,-99218.0,17877.884615384617,-1652.1153846153845,2046.5,-59.76923076923077,23.115384615384617,-18.346153846153847
1546.0,-99218.0,17907.923076923078,-1622.076923076923,2047.0,-59.84615384615385,23.076923076923077,-18.23076923076923
1548.0,-99218.0,17937.96153846154,-1592.0384615384614,2047.5,-59.92307692307692,23.03846153846154,-18.115384615384617
1550.0,-99218.0,17952.98076923077,-1592.0576923076924,2047.9615384615386,-60.0,23.0,-17.98076923076923
1552.0,-99218.0,17907.923076923078,-1682.2307692307693,2047.8461538461538,-60.0,23.0,-17.923076923076923
1554.0,-99218.0,17877.884615384617,-1742.3461538461538,2047.7692307692307,-60.0,23.0,-17.884615384615383
1556.0,-99218.0,17847.846153846152,-1802.4615384615386,2047.6923076923076,-60.0,23.0,-17.846153846153847
1558.0,-99218.0,17817.80769230769,-1862.576923076923,2047.6153846153845,-60.0,23.0,-17.807692307692307
1560.0,-99218.0,17787.76923076923,-1922.6923076923076,2047.5384615384614,-60.0,23.0,-17.76923076923077
1562.0,-99218.0,17757.73076923077,-1982.8076923076924,2047.4615384615386,-60.0,23.0,-17.73076923076923
1564.0,-99218.0,17727.69230769231,-2042.923076923077,2047.3846153846155,-60.0,23.0,-17.692307692307693
1566.0,-99218.0,17697.653846153848,-2103.0384615384614,2047.3076923076924,-60.0,23.0,-17.653846153846153
1568.0,-99218.0,17667.615384615383,-2163.153846153846,2047.2307692307693,-60.0,23.0,-17.615384615384617
1570.0,-99218.0,17637.576923076922,-2223.2692307692305,2047.1538461538462,-60.0,23.0,-17.576923076923077
1572.0,-99218.0,17607.53846153846,-2283.3846153846152,2047.076923076923,-60.0,23.0,-17.53846153846154
1574.0,-99218.0,17577.5,-2343.5,2047.0,-60.0,23.0,-17.5
1576.0,-99218.0,17547.46153846154,-2403.6153846153848,2046.923076923077,-60.0,23.0,-17.46153846153846
1578.0,-99218.0,17517.423076923078,-2463.730769230769,2046.8461538461538,-60.0,23.0,-17.423076923076923
1580.0,-99218.0,17487.384615384617,-2523.846153846154,2046.7692307692307,-60.0,23.0,-17.384615384615383
1582.0,-99218.0,17457.346153846152,-2583.9615384615386,2046.6923076923076,-60.0,23.0,-17.346153846153847
1584.0,-99218.0,17427.30769230769,-2644.076923076923,2046.6153846153845,-60.0,23.0,-17.307692307692307
1586.0,-99218.0,17397.26923076923,-2704.1923076923076,2046.5384615384614,-60.0,23.0,-17.26923076923077
1588.0,-99218.0,17367.23076923077,-2764.3076923076924,2046.4615384615386,-60.0,23.0,-17.23076923076923
1590.0,-99218.0,17337.19230769231,-2824.423076923077,2046.3846153846155,-60.0,23.0,-17.192307692307693
1592.0,-99218.0,17307.153846153848,-2884.5384615384614,2046.3076923076924,-60.0,23.0,-17.153846153846153
1594.0,-99218.0,17277.115384615383,-2944.653846153846,2046.2307692307693,-60.0,23.0,-17.115384615384617
1596.0,-99218.0,17247.076923076922,-3004.7692307692305,2046.1538461538462,-60.0,23.0,-17.076923076923077
1598.0,-99218.0,17217.03846153846,-3064.8846153846152,2046.076923076923,-60.0,23.0,-17.03846153846154
1600.0,-99248.05769230769,17187.0,-3094.9423076923076,2045.923076923077,-60.019230769230774,22.98076923076923,-16.96153846153846
1602.0,-99338.23076923077,17187.0,-3004.769230769231,2045.6923076923076,-60.07692307692308,22.923076923076923,-16.846153846153847
1604.0,-99398.34615384616,17187.0,-2944.653846153846,2045.5384615384614,-60.11538461538461,22.884615384615383,-16.76923076923077
1606.0,-99458.46153846153,17187.0,-2884.5384615384614,2045.3846153846155,-60.15384615384615,22.846153846153847,-16.692307692307693
1608.0,-99518.57692307692,17187.0,-2824.423076923077,2045.2307692307693,-60.19230769230769,22.807692307692307,-16.615384615384617
1610.0,-99578.69230769231,17187.0,-2764.3076923076924,2045.076923076923,-60.23076923076923,22.76923076923077,-16.53846153846154
1612.0,-99638.80769230769,17187.0,-2704.1923076923076,2044.923076923077,-60.26923076923077,22.73076923076923,-16.46153846153846
1614.0,-99698.92307692308,17187.0,-2644.076923076923,2044.7692307692307,-60.30769230769231,22.692307692307693,-16.384615384615383
1616.0,-99759.03846153847,17187.0,-2583.9615384615386,2044.6153846153845,-60.34615384615385,22.653846153846153,-16.307692307692307
1618.0,-99819.15384615384,17187.0,-2523.846153846154,2044.4615384615386,-60.38461538461539,22.615384615384617,-16.23076923076923
1620.0,-99879.26923076923,17187.0,-2463.7307692307695,2044.3076923076924,-60.42307692307692,22.576923076923077,-16.153846153846153
1622.0,-99939.38461538461,17187.0,-2403.6153846153848,2044.1538461538462,-60.46153846153846,22.53846153846154,-16.076923076923077
1624.0,-99999.5,17187.0,-2343.5,2044.0,-60.5,22.5,-16.0
1626.0,-100059.61538461539,17187.0,-2283.3846153846152,2043.8461538461538,-60.53846153846154,22.46153846153846,-15.923076923076923
1628.0,-100119.73076923077,17187.0,-2223.269230769231,2043.6923076923076,-60.57692307692308,22.423076923076923,-15.846153846153847
1630.0,-100179.84615384616,17187.0,-2163.153846153846,2043.5384615384614,-60.61538461538461,22.384615384615383,-15.76923076923077
1632.0,-100239.96153846153,17187.0,-2103.0384615384614,2043.3846153846155,-60.65384615384615,22.346153846153847,-15.692307692307692
1634.0,-100300.07692307692,17187.0,-2042.923076923077,2043.2307692307693,-60.69230769230769,22.307692307692307,-15.615384615384615
1636.0,-100360.19230769231,17187.0,-1982.8076923076924,2043.076923076923,-60.73076923076923,22.26923076923077,-15.538461538461538
1638.0,-100420.30769230769,17187.0,-1922.6923076923076,2042.923076923077,-60.76923076923077,22.23076923076923,-15.461538461538462
1640.0,-100480.42307692308,17187.0,-1862.576923076923,2042.7692307692307,-60.80769230769231,22.192307692307693,-15.384615384615385
1642.0,-100540.53846153847,17187.0,-1802.4615384615386,2042.6153846153845,-60.84615384615385,22.153846153846153,-15.307692307692307
1644.0,-100600.65384615384,17187.0,-1742.3461538461538,2042.4615384615386,-60.88461538461539,22.115384615384617,-15.23076923076923
1646.0,-100660.76923076923,17187.0,-1682.2307692307693,2042.3076923076924,-60.92307692307692,22.076923076923077,-15.153846153846153
1648.0,-100720.88461538461,17187.0,-1622.1153846153848,2042.1538461538462,-60.96153846153846,22.03846153846154,-15.076923076923077
1650.0,-100781.0,17156.96153846154,-1562.0,2041.9038461538462,-61.019230769230774,22.0,-15.0
1652.0,-100781.0,17066.846153846152,-1562.0,2041.6153846153845,-61.07692307692308,22.0,-15.0
1654.0,-100781.0,17006.76923076923,-1562.0,2041.423076923077,-61.11538461538461,22.0,-15.0
1656.0,-100781.0,16946.69230769231,-1562.0,2041.2307692307693,-61.15384615384615,22.0,-15.0
1658.0,-100781.0,16886.615384615383,-1562.0,2041.0384615384614,-61.19230769230769,22.0,-15.0
1660.0,-100781.0,16826.53846153846,-1562.0,2040.8461538461538,-61.23076923076923,22.0,-15.0
1662.0,-100781.0,16766.46153846154,-1562.0,2040.6538461538462,-61.26923076923077,22.0,-15.0
1664.0,-100781.0,16706.384615384617,-1562.0,2040.4615384615386,-61.30769230769231,22.0,-15.0
1666.0,-100781.0,16646.30769230769,-1562.0,2040.2692307692307,-61.34615384615385,22.0,-15.0
1668.0,-100781.0,16586.23076923077,-1562.0,2040.076923076923,-61.38461538461539,22.0,-15.0
1670.0,-100781.0,16526.153846153848,-1562.0,2039.8846153846155,-61.42307692307692,22.0,-15.0
1672.0,-100781.0,16466.076923076922,-1562.0,2039.6923076923076,-61.46153846153846,22.0,-15.0
1674.0,-100781.0,16406.0,-1562.0,2039.5,-61.5,22.0,-15.0
1676.0,-100781.0,16345.923076923076,-1562.0,2039.3076923076924,-61.53846153846154,22.0,-15.0
1678.0,-100781.0,16285.846153846154,-1562.0,2039.1153846153845,-61.57692307692308,22.0,-15.0
1680.0,-100781.0,16225.76923076923,-1562.0,2038.923076923077,-61.61538461538461,22.0,-15.0
1682.0,-100781.0,16165.692307692309,-1562.0,2038.7307692307693,-61.65384615384615,22.0,-15.0
1684.0,-100781.0,16105.615384615385,-1562.0,2038.5384615384614,-61.69230769230769,22.0,-15.0
1686.0,-100781.0,16045.538461538461,-1562.0,2038.3461538461538,-61.73076923076923,22.0,-15.0
1688.0,-100781.0,15985.461538461539,-1562.0,2038.1538461538462,-61.76923076923077,22.0,-15.0
1690.0,-100781.0,15925.384615384615,-1562.0,2037.9615384615386,-61.80769230769231,22.0,-15.0
1692.0,-100781.0,15865.307692307691,-1562.0,2037.7692307692307,-61.84615384615385,22.0,-15.0
1694.0,-100781.0,15805.23076923077,-1562.0,2037.576923076923,-61.88461538461539,22.0,-15.0
1696.0,-100781.0,15745.153846153846,-1562.0,2037.3846153846155,-61.92307692307692,22.0,-15.0
1698.0,-100781.0,15685.076923076924,-1562.0,2037.1923076923076,-61.96153846153846,22.0,-15.0
1700.0,-100796.01923076923,15609.961538461539,-1562.0,2037.0192307692307,-62.03846153846154,22.01923076923077,-14.98076923076923
1702.0,-100841.07692307692,15564.846153846154,-1562.0,2037.076923076923,-62.15384615384615,22.076923076923077,-14.923076923076923
1704.0,-100871.11538461539,15534.76923076923,-1562.0,2037.1153846153845,-62.23076923076923,22.115384615384617,-14.884615384615385
1706.0,-100901.15384615384,15504.692307692309,-1562.0,2037.1538461538462,-62.30769230769231,22.153846153846153,-14.846153846153847
1708.0,-100931.19230769231,15474.615384615385,-1562.0,2037.1923076923076,-62.38461538461539,22.192307692307693,-14.807692307692308
1710.0,-100961.23076923077,15444.538461538461,-1562.0,2037.2307692307693,-62.46153846153846,22.23076923076923,-14.76923076923077
1712.0,-100991.26923076923,15414.461538461539,-1562.0,2037.2692307692307,-62.53846153846154,22.26923076923077,-14.73076923076923
1714.0,-101021.30769230769,15384.384615384615,-1562.0,2037.3076923076924,-62.61538461538461,22.307692307692307,-14.692307692307692
1716.0,-101051.34615384616,15354.307692307691,-1562.0,2037.3461538461538,-62.69230769230769,22.346153846153847,-14.653846153846153
1718.0,-101081.38461538461,15324.23076923077,-1562.0,2037.3846153846155,-62.76923076923077,22.384615384615383,-14.615384615384615
1720.0,-101111.42307692308,15294.153846153846,-1562.0,2037.423076923077,-62.84615384615385,22.423076923076923,-14.576923076923077
1722.0,-101141.46153846153,15264.076923076924,-1562.0,2037.4615384615386,-62.92307692307692,22.46153846153846,-14.538461538461538
1724.0,-101171.5,15234.0,-1562.0,2037.5,-63.0,22.5,-14.5
1726.0,-101201.53846153847,15203.923076923076,-1562.0,2037.5384615384614,-63.07692307692308,22.53846153846154,-14.461538461538462
1728.0,-101231.57692307692,15173.846153846154,-1562.0,2037.576923076923,-63.15384615384615,22.576923076923077,-14.423076923076923
1730.0,-101261.61538461539,15143.76923076923,-1562.0,2037.6153846153845,-63.23076923076923,22.615384615384617,-14.384615384615385
1732.0,-101291.65384615384,15113.692307692309,-1562.0,2037.6538461538462,-63.30769230769231,22.653846153846153,-14.346153846153847
1734.0,-101321.69230769231,15083.615384615385,-1562.0,2037.6923076923076,-63.38461538461539,22.692307692307693,-14.307692307692308
1736.0,-101351.73076923077,15053.538461538461,-1562.0,2037.7307692307693,-63.46153846153846,22.73076923076923,-14.26923076923077
1738.0,-101381.76923076923,15023.461538461539,-1562.0,2037.7692307692307,-63.53846153846154,22.76923076923077,-14.23076923076923
1740.0,-101411.80769230769,14993.384615384615,-1562.0,2037.8076923076924,-63.61538461538461,22.807692307692307,-14.192307692307692
1742.0,-101441.84615384616,14963.307692307691,-1562.0,2037.8461538461538,-63.69230769230769,22.846153846153847,-14.153846153846153
1744.0,-101471.88461538461,14933.23076923077,-1562.0,2037.8846153846155,-63.76923076923077,22.884615384615383,-14.115384615384615
1746.0,-101501.92307692308,14903.153846153846,-1562.0,2037.923076923077,-63.84615384615385,22.923076923076923,-14.076923076923077
1748.0,-101531.96153846153,14873.076923076924,-1562.0,2037.9615384615386,-63.92307692307692,22.96153846153846,-14.038461538461538
1750.0,-101577.01923076923,14782.903846153846,-1531.9615384615386,2038.0,-64.26923076923077,23.25,-14.076923076923077
1752.0,-101622.07692307692,14602.615384615385,-1441.8461538461538,2038.0,-65.07692307692308,24.0,-14.307692307692308
1754.0,-101652.11538461539,14482.423076923076,-1381.7692307692307,2038.0,-65.61538461538461,24.5,-14.461538461538462
1756.0,-101682.15384615384,14362.23076923077,-1321.6923076923076,2038.0,-66.15384615384616,25.0,-14.615384615384615
1758.0,-101712.19230769231,14242.038461538461,-1261.6153846153845,2038.0,-66.6923076923077,25.5,-14.76923076923077
1760.0,-101742.23076923077,14121.846153846154,-1201.5384615384614,2038.0,-67.23076923076923,26.0,-14.923076923076923
1762.0,-101772.26923076923,14001.653846153846,-1141.4615384615386,2038.0,-67.76923076923077,26.5,-15.076923076923077
1764.0,-101802.30769230769,13881.461538461539,-1081.3846153846152,2038.0,-68.3076923076923,27.0,-15.23076923076923
1766.0,-101832.34615384616,13761.26923076923,-1021.3076923076923,2038.0,-68.84615384615384,27.5,-15.384615384615385
1768.0,-101862.38461538461,13641.076923076924,-961.2307692307692,2038.0,-69.38461538461539,28.0,-15.538461538461538
1770.0,-101892.42307692308,13520.884615384615,-901.1538461538461,2038.0,-69.92307692307692,28.5,-15.692307692307693
1772.0,-101922.46153846153,13400.692307692309,-841.0769230769231,2038.0,-70.46153846153847,29.0,-15.846153846153847
1774.0,-101952.5,13280.5,-781.0,2038.0,-71.0,29.5,-16.0
1776.0,-101982.53846153847,13160.307692307691,-720.9230769230769,2038.0,-71.53846153846153,30.0,-16.153846153846153
1778.0,-102012.57692307692,13040.115384615385,-660.8461538461538,2038.0,-72.07692307692308,30.5,-16.307692307692307
1780.0,-102042.61538461539,12919.923076923076,-600.7692307692307,2038.0,-72.61538461538461,31.0,-16.46153846153846
1782.0,-102072.65384615384,12799.73076923077,-540.6923076923076,2038.0,-73.15384615384616,31.5,-16.615384615384617
1784.0,-102102.69230769231,12679.538461538461,-480.6153846153845,2038.0,-73.6923076923077,32.0,-16.76923076923077
1786.0,-102132.73076923077,12559.346153846154,-420.53846153846143,2038.0,-74.23076923076923,32.5,-16.923076923076923
1788.0,-102162.76923076923,12439.153846153846,-360.46153846153834,2038.0,-74.76923076923077,33.0,-17.076923076923077
1790.0,-102192.80769230769,12318.961538461539,-300.38461538461524,2038.0,-75.3076923076923,33.5,-17.23076923076923
1792.0,-102222.84615384616,12198.76923076923,-240.30769230769215,2038.0,-75.84615384615384,34.0,-17.384615384615387
1794.0,-102252.88461538461,12078.576923076922,-180.23076923076906,2038.0,-76.38461538461539,34.5,-17.53846153846154
1796.0,-102282.92307692308,11958.384615384615,-120.15384615384619,2038.0,-76.92307692307692,35.0,-17.692307692307693
1798.0,-102312.96153846153,11838.192307692309,-60.076923076923094,2038.0,-77.46153846153847,35.5,-17.846153846153847
1800.0,-102327.98076923077,11718.0,0.0,2038.0961538461538,-78.0,36.019230769230774,-18.01923076923077
1802.0,-102282.92307692308,11718.0,0.0,2038.3846153846155,-78.0,36.07692307692308,-18.076923076923077
1804.0,-102252.88461538461,11718.0,0.0,2038.576923076923,-78.0,36.11538461538461,-18.115384615384617
1806.0,-102222.84615384616,11718.0,0.0,2038.7692307692307,-78.0,36.15384615384615,-18.153846153846153
1808.0,-102192.80769230769,11718.0,0.0,2038.9615384615386,-78.0,36.19230769230769,-18.192307692307693
1810.0,-102162.76923076923,11718.0,0.0,2039.1538461538462,-78.0,36.23076923076923,-18.23076923076923
1812.0,-102132.73076923077,11718.0,0.0,2039.3461538461538,-78.0,36.26923076923077,-18.26923076923077
1814.0,-102102.69230769231,11718.0,0.0,2039.5384615384614,-78.0,36.30769230769231,-18.307692307692307
1816.0,-102072.65384615384,11718.0,0.0,2039.7307692307693,-78.0,36.34615384615385,-18.346153846153847
1818.0,-102042.61538461539,11718.0,0.0,2039.923076923077,-78.0,36.38461538461539,-18.384615384615383
1820.0,-102012.57692307692,11718.0,0.0,2040.1153846153845,-78.0,36.42307692307692,-18.423076923076923
1822.0,-101982.53846153847,11718.0,0.0,2040.3076923076924,-78.0,36.46153846153846,-18.46153846153846
1824.0,-101952.5,11718.0,0.0,2040.5,-78.0,36.5,-18.5
1826.0,-101922.46153846153,11718.0,0.0,2040.6923076923076,-78.0,36.53846153846154,-18.53846153846154
1828.0,-101892.42307692308,11718.0,0.0,2040.8846153846155,-78.0,36.57692307692308,-18.576923076923077
1830.0,-101862.38461538461,11718.0,0.0,2041.076923076923,-78.0,36.61538461538461,-18.615384615384617
1832.0,-101832.34615384616,11718.0,0.0,2041.2692307692307,-78.0,36.65384615384615,-18.653846153846153
1834.0,-101802.30769230769,11718.0,0.0,2041.4615384615386,-78.0,36.69230769230769,-18.692307692307693
1836.0,-101772.26923076923,11718.0,0.0,2041.6538461538462,-78.0,36.73076923076923,-18.73076923076923
1838.0,-101742.23076923077,11718.0,0.0,2041.8461538461538,-78.0,36.76923076923077,-18.76923076923077
1840.0,-101712.19230769231,11718.0,0.0,2042.0384615384614,-78.0,36.80769230769231,-18.807692307692307
1842.0,-101682.15384615384,11718.0,0.0,2042.2307692307693,-78.0,36.84615384615385,-18.846153846153847
1844.0,-101652.11538461539,11718.0,0.0,2042.423076923077,-78.0,36.88461538461539,-18.884615384615383
1846.0,-101622.07692307692,11718.0,0.0,2042.6153846153845,-78.0,36.92307692307692,-18.923076923076923
1848.0,-101592.03846153847,11718.0,0.0,2042.8076923076924,-78.0,36.96153846153846,-18.96153846153846
1850.0,-101562.0,11718.0,-15.01923076923077,2042.9807692307693,-78.01923076923077,37.03846153846154,-19.01923076923077
1852.0,-101562.0,11718.0,-60.07692307692308,2042.923076923077,-78.07692307692308,37.15384615384615,-19.076923076923077
1854.0,-101562.0,11718.0,-90.11538461538461,2042.8846153846155,-78.11538461538461,37.23076923076923,-19.115384615384617
1856.0,-101562.0,11718.0,-120.15384615384616,2042.8461538461538,-78.15384615384616,37.30769230769231,-19.153846153846153
1858.0,-101562.0,11718.0,-150.1923076923077,2042.8076923076924,-78.1923076923077,37.38461538461539,-19.192307692307693
1860.0,-101562.0,11718.0,-180.23076923076923,2042.7692307692307,-78.23076923076923,37.46153846153846,-19.23076923076923
1862.0,-101562.0,11718.0,-210.26923076923077,2042.7307692307693,-78.26923076923077,37.53846153846154,-19.26923076923077
1864.0,-101562.0,11718.0,-240.30769230769232,2042.6923076923076,-78.3076923076923,37.61538461538461,-19.307692307692307
1866.0,-101562.0,11718.0,-270.34615384615387,2042.6538461538462,-78.34615384615384,37.69230769230769,-19.346153846153847
1868.0,-101562.0,11718.0,-300.3846153846154,2042.6153846153845,-78.38461538461539,37.76923076923077,-19.384615384615383
1870.0,-101562.0,11718.0,-330.42307692307696,2042.576923076923,-78.42307692307692,37.84615384615385,-19.423076923076923
1872.0,-101562.0,11718.0,-360.46153846153845,2042.5384615384614,-78.46153846153847,37.92307692307692,-19.46153846153846
1874.0,-101562.0,11718.0,-390.5,2042.5,-78.5,38.0,-19.5
1876.0,-101562.0,11718.0,-420.53846153846155,2042.4615384615386,-78.53846153846153,38.07692307692308,-19.53846153846154
1878.0,-101562.0,11718.0,-450.5769230769231,2042.423076923077,-78.57692307692308,38.15384615384615,-19.576923076923077
1880.0,-101562.0,11718.0,-480.61538461538464,2042.3846153846155,-78.61538461538461,38.23076923076923,-19.615384615384617
1882.0,-101562.0,11718.0,-510.6538461538462,2042.3461538461538,-78.65384615384616,38.30769230769231,-19.653846153846153
1884.0,-101562.0,11718.0,-540.6923076923077,2042.3076923076924,-78.6923076923077,38.38461538461539,-19.692307692307693
1886.0,-101562.0,11718.0,-570.7307692307693,2042.2692307692307,-78.73076923076923,38.46153846153846,-19.73076923076923
1888.0,-101562.0,11718.0,-600.7692307692308,2042.2307692307693,-78.76923076923077,38.53846153846154,-19.76923076923077
1890.0,-101562.0,11718.0,-630.8076923076924,2042.1923076923076,-78.8076923076923,38.61538461538461,-19.807692307692307
1892.0,-101562.0,11718.0,-660.8461538461539,2042.1538461538462,-78.84615384615384,38.69230769230769,-19.846153846153847
1894.0,-101562.0,11718.0,-690.8846153846155,2042.1153846153845,-78.88461538461539,38.76923076923077,-19.884615384615383
1896.0,-101562.0,11718.0,-720.9230769230769,2042.076923076923,-78.92307692307692,38.84615384615385,-19.923076923076923
1898.0,-101562.0,11718.0,-750.9615384615385,2042.0384615384614,-78.96153846153847,38.92307692307692,-19.96153846153846
1900.0,-101546.98076923077,11733.038461538461,-750.9615384615385,2041.9807692307693,-78.9423076923077,39.03846153846154,-20.01923076923077
1902.0,-101501.92307692308,11778.153846153846,-660.8461538461538,2041.923076923077,-78.76923076923077,39.15384615384615,-20.076923076923077
1904.0,-101471.88461538461,11808.23076923077,-600.7692307692307,2041.8846153846155,-78.65384615384616,39.23076923076923,-20.115384615384617
1906.0,-101441.84615384616,11838.307692307691,-540.6923076923076,2041.8461538461538,-78.53846153846153,39.30769230769231,-20.153846153846153
1908.0,-101411.80769230769,11868.384615384615,-480.6153846153846,2041.8076923076924,-78.42307692307692,39.38461538461539,-20.192307692307693
1910.0,-101381.76923076923,11898.461538461539,-420.53846153846155,2041.7692307692307,-78.3076923076923,39.46153846153846,-20.23076923076923
1912.0,-101351.73076923077,11928.538461538461,-360.46153846153845,2041.7307692307693,-78.1923076923077,39.53846153846154,-20.26923076923077
1914.0,-101321.69230769231,11958.615384615385,-300.38461538461536,2041.6923076923076,-78.07692307692308,39.61538461538461,-20.307692307692307
1916.0,-101291.65384615384,11988.692307692309,-240.30769230769226,2041.6538461538462,-77.96153846153847,39.69230769230769,-20.346153846153847
1918.0,-101261.61538461539,12018.76923076923,-180.23076923076917,2041.6153846153845,-77.84615384615384,39.76923076923077,-20.384615384615383
1920.0,-101231.57692307692,12048.846153846154,-120.15384615384608,2041.576923076923,-77.73076923076923,39.84615384615385,-20.423076923076923
1922.0,-101201.53846153847,12078.923076923076,-60.076923076923094,2041.5384615384614,-77.61538461538461,39.92307692307692,-20.46153846153846
1924.0,-101171.5,12109.0,0.0,2041.5,-77.5,40.0,-20.5
1926.0,-101141.46153846153,12139.076923076924,60.076923076923094,2041.4615384615386,-77.38461538461539,40.07692307692308,-20.53846153846154
1928.0,-101111.42307692308,12169.153846153846,120.15384615384619,2041.423076923077,-77.26923076923077,40.15384615384615,-20.576923076923077
1930.0,-101081.38461538461,12199.23076923077,180.23076923076928,2041.3846153846155,-77.15384615384616,40.23076923076923,-20.615384615384617
1932.0,-101051.34615384616,12229.307692307691,240.30769230769238,2041.3461538461538,-77.03846153846153,40.30769230769231,-20.653846153846153
1934.0,-101021.30769230769,12259.384615384615,300.3846153846155,2041.3076923076924,-76.92307692307692,40.38461538461539,-20.692307692307693
1936.0,-100991.26923076923,12289.461538461539,360.46153846153857,2041.2692307692307,-76.8076923076923,40.46153846153846,-20.73076923076923
1938.0,-100961.23076923077,12319.538461538461,420.53846153846166,2041.2307692307693,-76.6923076923077,40.53846153846154,-20.76923076923077
1940.0,-100931.19230769231,12349.615384615385,480.61538461538476,2041.1923076923076,-76.57692307692308,40.61538461538461,-20.807692307692307
1942.0,-100901.15384615384,12379.692307692309,540.6923076923078,2041.1538461538462,-76.46153846153847,40.69230769230769,-20.846153846153847
1944.0,-100871.11538461539,12409.76923076923,600.769230769231,2041.1153846153845,-76.34615384615384,40.76923076923077,-20.884615384615383
1946.0,-100841.07692307692,12439.846153846154,660.8461538461538,2041.076923076923,-76.23076923076923,40.84615384615385,-20.923076923076923
1948.0,-100811.03846153847,12469.923076923076,720.9230769230769,2041.0384615384614,-76.11538461538461,40.92307692307692,-20.96153846153846
1950.0,-100765.98076923077,12515.01923076923,781.0,2041.076923076923,-75.96153846153845,40.980769230769226,-21.01923076923077
1952.0,-100720.92307692308,12560.076923076924,781.0,2041.3076923076924,-75.84615384615384,40.92307692307692,-21.076923076923077
1954.0,-100690.88461538461,12590.115384615385,781.0,2041.4615384615386,-75.76923076923077,40.88461538461539,-21.115384615384617
1956.0,-100660.84615384616,12620.153846153846,781.0,2041.6153846153845,-75.6923076923077,40.84615384615385,-21.153846153846153
1958.0,-100630.80769230769,12650.192307692309,781.0,2041.7692307692307,-75.61538461538461,40.80769230769231,-21.192307692307693
1960.0,-100600.76923076923,12680.23076923077,781.0,2041.923076923077,-75.53846153846153,40.76923076923077,-21.23076923076923
1962.0,-100570.73076923077,12710.26923076923,781.0,2042.076923076923,-75.46153846153847,40.73076923076923,-21.26923076923077
1964.0,-100540.69230769231,12740.307692307691,781.0,2042.2307692307693,-75.38461538461539,40.69230769230769,-21.307692307692307
1966.0,-100510.65384615384,12770.346153846154,781.0,2042.3846153846155,-75.3076923076923,40.65384615384615,-21.346153846153847
1968.0,-100480.61538461539,12800.384615384615,781.0,2042.5384615384614,-75.23076923076923,40.61538461538461,-21.384615384615383
1970.0,-100450.57692307692,12830.423076923076,781.0,2042.6923076923076,-75.15384615384616,40.57692307692308,-21.423076923076923
1972.0,-100420.53846153847,12860.461538461539,781.0,2042.8461538461538,-75.07692307692308,40.53846153846154,-21.46153846153846
1974.0,-100390.5,12890.5,781.0,2043.0,-75.0,40.5,-21.5
1976.0,-100360.46153846153,12920.538461538461,781.0,2043.1538461538462,-74.92307692307692,40.46153846153846,-21.53846153846154
1978.0,-100330.42307692308,12950.576923076924,781.0,2043.3076923076924,-74.84615384615384,40.42307692307692,-21.576923076923077
1980.0,-100300.38461538461,12980.615384615385,781.0,2043.4615384615386,-74.76923076923077,40.38461538461539,-21.615384615384617
1982.0,-100270.34615384616,13010.653846153846,781.0,2043.6153846153845,-74.6923076923077,40.34615384615385,-21.653846153846153
1984.0,-100240.30769230769,13040.692307692309,781.0,2043.7692307692307,-74.61538461538461,40.30769230769231,-21.692307692307693
1986.0,-100210.26923076923,13070.73076923077,781.0,2043.923076923077,-74.53846153846153,40.26923076923077,-21.73076923076923
1988.0,-100180.23076923077,13100.76923076923,781.0,2044.076923076923,-74.46153846153847,40.23076923076923,-21.76923076923077
1990.0,-100150.19230769231,13130.807692307691,781.0,2044.2307692307693,-74.38461538461539,40.19230769230769,-21.807692307692307
1992.0,-100120.15384615384,13160.846153846154,781.0,2044.3846153846155,-74.3076923076923,40.15384615384615,-21.846153846153847
1994.0,-100090.11538461539,13190.884615384615,781.0,2044.5384615384614,-74.23076923076923,40.11538461538461,-21.884615384615383
1996.0,-100060.07692307692,13220.923076923076,781.0,2044.6923076923076,-74.15384615384616,40.07692307692308,-21.923076923076923
1998.0,-100030.03846153847,13250.961538461539,781.0,2044.8461538461538,-74.07692307692308,40.03846153846154,-21.96153846153846
2000.0,-99984.96153846153,13235.923076923078,811.0384615384615,2044.923076923077,-73.96153846153845,40.019230769230774,-22.0
2002.0,-99939.84615384616,13100.692307692309,901.1538461538462,2044.6923076923076,-73.84615384615384,40.07692307692308,-22.0
2004.0,-99909.76923076923,13010.538461538461,961.2307692307693,2044.5384615384614,-73.76923076923077,40.11538461538461,-22.0
2006.0,-99879.69230769231,12920.384615384615,1021.3076923076924,2044.3846153846155,-73.6923076923077,40.15384615384615,-22.0
2008.0,-99849.61538461539,12830.23076923077,1081.3846153846155,2044.2307692307693,-73.61538461538461,40.19230769230769,-22.0
2010.0,-99819.53846153847,12740.076923076924,1141.4615384615386,2044.076923076923,-73.53846153846153,40.23076923076923,-22.0
2012.0,-99789.46153846153,12649.923076923076,1201.5384615384614,2043.923076923077,-73.46153846153847,40.26923076923077,-22.0
2014.0,-99759.38461538461,12559.76923076923,1261.6153846153848,2043.7692307692307,-73.38461538461539,40.30769230769231,-22.0
2016.0,-99729.30769230769,12469.615384615385,1321.6923076923076,2043.6153846153845,-73.3076923076923,40.34615384615385,-22.0
2018.0,-99699.23076923077,12379.461538461539,1381.769230769231,2043.4615384615386,-73.23076923076923,40.38461538461539,-22.0
2020.0,-99669.15384615384,12289.307692307691,1441.8461538461538,2043.3076923076924,-73.15384615384616,40.42307692307692,-22.0
2022.0,-99639.07692307692,12199.153846153846,1501.923076923077,2043.1538461538462,-73.07692307692308,40.46153846153846,-22.0
2024.0,-99609.0,12109.0,1562.0,2043.0,-73.0,40.5,-22.0
2026.0,-99578.92307692308,12018.846153846154,1622.076923076923,2042.8461538461538,-72.92307692307692,40.53846153846154,-22.0
2028.0,-99548.84615384616,11928.692307692309,1682.1538461538462,2042.6923076923076,-72.84615384615384,40.57692307692308,-22.0
2030.0,-99518.76923076923,11838.538461538461,1742.2307692307693,2042.5384615384614,-72.76923076923077,40.61538461538461,-22.0
2032.0,-99488.69230769231,11748.384615384615,1802.3076923076924,2042.3846153846155,-72.6923076923077,40.65384615384615,-22.0
2034.0,-99458.61538461539,11658.23076923077,1862.3846153846155,2042.2307692307693,-72.61538461538461,40.69230769230769,-22.0
2036.0,-99428.53846153847,11568.076923076922,1922.4615384615386,2042.076923076923,-72.53846153846153,40.73076923076923,-22.0
2038.0,-99398.46153846153,11477.923076923076,1982.5384615384617,2041.923076923077,-72.46153846153847,40.76923076923077,-22.0
2040.0,-99368.38461538461,11387.76923076923,2042.6153846153848,2041.7692307692307,-72.38461538461539,40.80769230769231,-22.0
2042.0,-99338.30769230769,11297.615384615385,2102.6923076923076,2041.6153846153845,-72.3076923076923,40.84615384615385,-22.0
2044.0,-99308.23076923077,11207.461538461539,2162.769230769231,2041.4615384615386,-72.23076923076923,40.88461538461539,-22.0
2046.0,-99278.15384615384,11117.307692307691,2222.846153846154,2041.3076923076924,-72.15384615384616,40.92307692307692,-22.0
2048.0,-99248.07692307692,11027.153846153846,2282.923076923077,2041.1538461538462,-72.07692307692308,40.96153846153846,-22.0
2050.0,-99218.0,10967.057692307691,2312.9615384615386,2041.0384615384614,-71.8076923076923,41.0,-22.01923076923077
2052.0,-99218.0,11057.23076923077,2222.846153846154,2041.1538461538462,-71.23076923076923,41.0,-22.076923076923077
2054.0,-99218.0,11117.346153846154,2162.769230769231,2041.2307692307693,-70.84615384615384,41.0,-22.115384615384617
2056.0,-99218.0,11177.461538461539,2102.6923076923076,2041.3076923076924,-70.46153846153847,41.0,-22.153846153846153
2058.0,-99218.0,11237.576923076924,2042.6153846153845,2041.3846153846155,-70.07692307692308,41.0,-22.192307692307693
2060.0,-99218.0,11297.692307692309,1982.5384615384614,2041.4615384615386,-69.6923076923077,41.0,-22.23076923076923
2062.0,-99218.0,11357.807692307691,1922.4615384615386,2041.5384615384614,-69.3076923076923,41.0,-22.26923076923077
2064.0,-99218.0,11417.923076923076,1862.3846153846152,2041.6153846153845,-68.92307692307692,41.0,-22.307692307692307
2066.0,-99218.0,11478.038461538461,1802.3076923076924,2041.6923076923076,-68.53846153846153,41.0,-22.346153846153847
2068.0,-99218.0,11538.153846153846,1742.230769230769,2041.7692307692307,-68.15384615384616,41.0,-22.384615384615383
2070.0,-99218.0,11598.26923076923,1682.1538461538462,2041.8461538461538,-67.76923076923077,41.0,-22.423076923076923
2072.0,-99218.0,11658.384615384615,1622.076923076923,2041.923076923077,-67.38461538461539,41.0,-22.46153846153846
2074.0,-99218.0,11718.5,1562.0,2042.0,-67.0,41.0,-22.5
2076.0,-99218.0,11778.615384615385,1501.923076923077,2042.076923076923,-66.61538461538461,41.0,-22.53846153846154
