timestamp,accX,accY,accZ,pressure,gyroX,gyroY,gyroZ
289414,-92968,-7031,3906,2063,-34,28,-14
425103,-99218,-6250,-1562,2066,-25,45,-36
425105,-99218,-6250,-1562,2057,-25,45,-36
425107,-99218,-6250,-1562,2059,-25,45,-36
425109,-99218,-6250,-1562,2058,-25,45,-36
425111,-100000,-6250,-781,2053,-25,45,-36
425113,-100000,-6250,-781,2059,-25,45,-36
425115,-100000,-6250,-781,2057,-25,46,-36
425117,-100000,-6250,-781,2063,-25,45,-35
425119,-100000,-6250,-781,2059,-25,45,-35
425121,-99218,-7031,-781,2046,-25,45,-35
425123,-99218,-7031,-781,2057,-25,45,-35
425125,-99218,-7031,-781,2046,-25,45,-36
425127,-99218,-7031,-781,2054,-25,45,-36
425129,-99218,-7031,-781,2048,-25,45,-36
425131,-100000,-6250,-1562,2057,-25,45,-36
425133,-100000,-6250,-1562,2049,-25,46,-36
425135,-100000,-6250,-1562,2063,-25,46,-35
425137,-100000,-6250,-1562,2043,-25,46,-35
425139,-100000,-6250,-1562,2049,-25,46,-35
425141,-100000,-6250,0,2051,-25,46,-35
425143,-100000,-6250,0,2047,-25,46,-35
425145,-100000,-6250,0,2053,-25,46,-35
425147,-100000,-6250,0,2042,-25,46,-35
425149,-100000,-6250,0,2048,-25,46,-35
425151,-100000,-5468,-2343,2054,-25,47,-35
425153,-100000,-5468,-2343,2049,-25,46,-35
425155,-100000,-5468,-2343,2061,-25,47,-35
425157,-100000,-5468,-2343,2051,-25,47,-35
425159,-100000,-5468,-2343,2056,-26,47,-36
425161,-100000,-6250,-2343,2054,-26,47,-36
425164,-100000,-6250,-2343,2048,-26,47,-36
425165,-100000,-6250,-2343,2058,-26,47,-36
425167,-100000,-6250,-2343,2054,-26,48,-36
425169,-100000,-6250,-2343,2054,-26,48,-36
425171,-100781,-6250,-3125,2051,-26,48,-36
425173,-100781,-6250,-3125,2049,-26,48,-36
425175,-100781,-6250,-3125,2058,-26,48,-36
425177,-100781,-6250,-3125,2047,-26,48,-36
425179,-100781,-6250,-3125,2058,-27,48,-36
425181,-100000,-5468,-1562,2048,-27,48,-36
425183,-100000,-5468,-1562,2049,-27,48,-36
425185,-100000,-5468,-1562,2051,-27,48,-36
425187,-100000,-5468,-1562,2046,-27,48,-36
425189,-100000,-5468,-1562,2051,-27,48,-36
425191,-100781,-4687,-3125,2056,-27,49,-36
425193,-100781,-4687,-3125,2047,-28,49,-36
425195,-100781,-4687,-3125,2052,-28,49,-36
425197,-100781,-4687,-3125,2051,-28,49,-36
425199,-100781,-4687,-3125,2046,-28,49,-36
425201,-100781,-4687,-3125,2054,-28,49,-36
425203,-100781,-4687,-3125,2063,-28,49,-36
425205,-100781,-4687,-3125,2054,-28,49,-36
425207,-100781,-4687,-3125,2051,-28,49,-36
425209,-100781,-4687,-3125,2048,-28,49,-36
425211,-100781,-5468,-2343,2058,-28,49,-36
425213,-100781,-5468,-2343,2052,-29,49,-36
425215,-100781,-5468,-2343,2052,-29,49,-36
425217,-100781,-5468,-2343,2058,-29,49,-36
425219,-100781,-5468,-2343,2049,-29,49,-36
425221,-100781,-6250,-3125,2051,-29,49,-36
425223,-100781,-6250,-3125,2056,-29,48,-36
425225,-100781,-6250,-3125,2043,-29,48,-36
425227,-100781,-6250,-3125,2052,-30,48,-36
425230,-100781,-6250,-3125,2051,-30,48,-36
425231,-100781,-6250,-2343,2053,-30,48,-36
425233,-100781,-6250,-2343,2061,-30,48,-36
425235,-100781,-6250,-2343,2067,-30,48,-36
425237,-100781,-6250,-2343,2056,-30,48,-36
425239,-100781,-6250,-2343,2058,-30,48,-36
425241,-100781,-6250,-2343,2063,-30,48,-36
425243,-100781,-6250,-2343,2041,-31,48,-36
425245,-100781,-6250,-2343,2059,-31,48,-36
425247,-100781,-6250,-2343,2049,-31,48,-36
425249,-100781,-6250,-2343,2051,-31,48,-36
425251,-101562,-5468,-3125,2053,-31,48,-36
425253,-101562,-5468,-3125,2056,-32,48,-35
425255,-101562,-5468,-3125,2056,-32,48,-35
425257,-101562,-5468,-3125,2051,-32,48,-35
425259,-101562,-5468,-3125,2053,-32,48,-35
425261,-101562,-4687,-3125,2056,-32,48,-35
425263,-101562,-4687,-3125,2043,-33,48,-35
425265,-101562,-4687,-3125,2048,-33,48,-35
425267,-101562,-4687,-3125,2051,-33,48,-35
425269,-101562,-4687,-3125,2061,-33,48,-35
425271,-101562,-5468,-2343,2052,-33,48,-34
425273,-101562,-5468,-2343,2061,-33,48,-34
425275,-101562,-5468,-2343,2051,-33,48,-34
425277,-101562,-5468,-2343,2049,-34,48,-34
425279,-101562,-5468,-2343,2045,-34,49,-34
425281,-101562,-5468,-2343,2052,-34,49,-34
425283,-101562,-5468,-2343,2051,-34,49,-34
425285,-101562,-5468,-2343,2043,-34,49,-34
425287,-101562,-5468,-2343,2051,-34,49,-34
425290,-101562,-5468,-2343,2054,-34,49,-34
425291,-101562,-5468,-2343,2056,-35,49,-34
425293,-101562,-5468,-3125,2056,-35,50,-34
425295,-101562,-5468,-3125,2052,-35,50,-34
425297,-101562,-5468,-3125,2051,-35,50,-34
425299,-101562,-5468,-3125,2057,-35,50,-34
425301,-101562,-5468,-3125,2043,-36,50,-34
425303,-101562,-6250,-1562,2046,-36,50,-34
425305,-101562,-6250,-1562,2046,-36,50,-34
425307,-101562,-6250,-1562,2047,-37,50,-35
425309,-101562,-6250,-1562,2063,-37,50,-35
425311,-101562,-6250,-1562,2042,-37,51,-34
425313,-101562,-6250,-1562,2047,-37,51,-34
425315,-101562,-6250,-1562,2057,-37,51,-34
425317,-101562,-6250,-1562,2047,-38,51,-34
425319,-101562,-6250,-1562,2053,-38,51,-34
425321,-101562,-6250,-1562,2057,-38,51,-34
425323,-100781,-4687,-1562,2051,-38,51,-34
425325,-100781,-4687,-1562,2051,-38,51,-34
425327,-100781,-4687,-1562,2054,-38,50,-34
425329,-100781,-4687,-1562,2048,-38,50,-34
425331,-100781,-4687,-1562,2051,-38,50,-34
425333,-100781,-5468,-2343,2046,-39,50,-34
425335,-100781,-5468,-2343,2052,-39,50,-34
425337,-100781,-5468,-2343,2056,-39,50,-34
425339,-100781,-5468,-2343,2048,-39,50,-34
425341,-100781,-5468,-2343,2051,-39,50,-34
425343,-101562,-5468,-2343,2053,-39,50,-34
425345,-101562,-5468,-2343,2049,-39,50,-34
425347,-101562,-5468,-2343,2051,-39,50,-34
425349,-101562,-5468,-2343,2048,-39,50,-34
425351,-101562,-5468,-2343,2049,-39,50,-34
425353,-101562,-5468,-3125,2045,-40,50,-34
425355,-101562,-5468,-3125,2047,-40,50,-33
425357,-101562,-5468,-3125,2058,-40,49,-33
425359,-101562,-5468,-3125,2053,-40,49,-34
425361,-101562,-5468,-3125,2049,-40,49,-34
425369,-101562,-5468,-3906,2056,-41,49,-33
425371,-101562,-5468,-3906,2057,-41,49,-33
425373,-102343,-5468,-3125,2061,-41,49,-33
425374,-102343,-5468,-3125,2047,-42,49,-33
425375,-102343,-5468,-3125,2064,-42,49,-33
425377,-102343,-5468,-3125,2042,-42,49,-33
425379,-102343,-5468,-3125,2057,-42,49,-34
425380,-102343,-5468,-3125,2051,-42,49,-34
425382,-102343,-5468,-3125,2053,-42,49,-34
425383,-102343,-6250,-3125,2046,-42,49,-34
425385,-102343,-6250,-3125,2051,-42,49,-34
425386,-102343,-6250,-3125,2042,-42,49,-34
425388,-102343,-6250,-3125,2053,-42,49,-34
425389,-102343,-6250,-3125,2068,-42,49,-34
425391,-102343,-6250,-3125,2048,-43,49,-33
425393,-101562,-4687,-1562,2056,-43,49,-33
425395,-101562,-4687,-1562,2051,-43,49,-33
425397,-101562,-4687,-1562,2048,-43,49,-33
425399,-101562,-4687,-1562,2056,-43,49,-33
425401,-101562,-4687,-1562,2053,-44,49,-33
425403,-101562,-5468,-2343,2061,-44,49,-33
425405,-101562,-5468,-2343,2048,-44,49,-33
425407,-101562,-5468,-2343,2064,-44,49,-33
425409,-101562,-5468,-2343,2061,-44,49,-33
425411,-101562,-5468,-2343,2056,-44,50,-33
425413,-102343,-5468,-2343,2048,-44,50,-33
425415,-102343,-5468,-2343,2059,-45,50,-32
425417,-102343,-5468,-2343,2046,-45,50,-32
425419,-102343,-5468,-2343,2061,-45,50,-32
425421,-102343,-5468,-2343,2053,-45,50,-32
425423,-102343,-5468,-3125,2051,-45,50,-32
425425,-102343,-5468,-3125,2046,-46,50,-32
425427,-102343,-5468,-3125,2047,-46,50,-32
425429,-102343,-5468,-3125,2049,-46,50,-32
425431,-102343,-5468,-3125,2047,-46,50,-32
425433,-100781,-6250,-1562,2059,-46,50,-32
425435,-100781,-6250,-1562,2059,-47,50,-32
425437,-100781,-6250,-1562,2061,-47,50,-32
425439,-100781,-6250,-1562,2052,-47,50,-33
425441,-100781,-6250,-1562,2049,-47,50,-33
425443,-101562,-5468,-1562,2051,-48,50,-32
425445,-101562,-5468,-1562,2062,-48,50,-32
425447,-101562,-5468,-1562,2045,-48,50,-32
425449,-101562,-5468,-1562,2046,-48,49,-32
425451,-101562,-5468,-1562,2041,-48,49,-32
425453,-101562,-4687,-3125,2056,-48,49,-32
425455,-101562,-4687,-3125,2052,-48,49,-32
425457,-101562,-4687,-3125,2056,-48,49,-32
425459,-101562,-4687,-3125,2053,-48,49,-32
425461,-101562,-4687,-3125,2061,-48,49,-32
425463,-101562,-4687,-3125,2056,-48,49,-31
425465,-101562,-3906,-781,2058,-49,49,-31
425467,-101562,-3906,-781,2049,-49,49,-31
425469,-101562,-3906,-781,2061,-49,49,-31
425471,-101562,-3906,-781,2051,-49,49,-31
425473,-101562,-3906,-781,2051,-49,49,-31
425475,-102343,-4687,-2343,2042,-49,49,-31
425477,-102343,-4687,-2343,2053,-49,49,-31
425479,-102343,-4687,-2343,2048,-49,49,-31
425481,-102343,-4687,-2343,2061,-50,49,-31
425483,-102343,-4687,-2343,2051,-50,49,-31
425485,-101562,-5468,-1562,2051,-50,49,-31
425487,-101562,-5468,-1562,2047,-50,49,-31
425489,-101562,-5468,-1562,2049,-50,48,-31
425491,-101562,-5468,-1562,2052,-50,48,-31
425493,-101562,-5468,-1562,2054,-50,48,-31
425495,-102343,-5468,-2343,2062,-50,48,-31
425497,-102343,-5468,-2343,2051,-50,48,-31
425499,-102343,-5468,-2343,2053,-50,48,-31
425501,-102343,-5468,-2343,2048,-51,48,-31
425503,-102343,-5468,-2343,2051,-51,48,-31
425505,-100781,-6250,-781,2051,-51,48,-31
425507,-100781,-6250,-781,2053,-51,48,-31
425509,-100781,-6250,-781,2047,-51,48,-31
425511,-100781,-6250,-781,2047,-51,48,-31
425513,-100781,-6250,-781,2059,-52,48,-31
425515,-102343,-5468,-1562,2051,-52,48,-31
425517,-102343,-5468,-1562,2056,-52,48,-31
425519,-102343,-5468,-1562,2048,-52,48,-31
425521,-102343,-5468,-1562,2045,-52,48,-31
425523,-102343,-5468,-1562,2045,-52,48,-31
425525,-101562,-4687,-2343,2054,-52,48,-31
425527,-101562,-4687,-2343,2057,-52,49,-31
425529,-101562,-4687,-2343,2047,-53,49,-31
425531,-101562,-4687,-2343,2056,-53,49,-31
425533,-101562,-4687,-2343,2058,-53,49,-31
425535,-101562,-5468,-3125,2052,-53,49,-31
425537,-101562,-5468,-3125,2046,-53,49,-31
425539,-101562,-5468,-3125,2059,-53,48,-31
425541,-101562,-5468,-3125,2045,-53,48,-31
425543,-101562,-5468,-3125,2046,-53,48,-31
425545,-101562,-4687,-2343,2052,-53,48,-31
425547,-101562,-4687,-2343,2056,-53,48,-31
425549,-101562,-4687,-2343,2056,-53,48,-31
425551,-101562,-4687,-2343,2052,-53,48,-31
425553,-101562,-4687,-2343,2058,-53,48,-31
425555,-100781,-5468,-1562,2052,-53,48,-31
425557,-100781,-5468,-1562,2048,-53,48,-31
425559,-100781,-5468,-1562,2061,-53,48,-31
425561,-100781,-5468,-1562,2051,-54,48,-31
425563,-100781,-5468,-1562,2057,-54,48,-31
425565,-101562,-5468,-1562,2057,-54,48,-31
425567,-101562,-5468,-1562,2054,-54,48,-31
425569,-101562,-5468,-1562,2043,-54,48,-31
425571,-101562,-5468,-1562,2046,-54,47,-31
425573,-101562,-5468,-1562,2061,-55,47,-31
425575,-100781,-4687,-2343,2051,-55,47,-31
425577,-100781,-4687,-2343,2046,-55,47,-31
425579,-100781,-4687,-2343,2057,-55,47,-31
425581,-100781,-4687,-2343,2041,-55,47,-31
425583,-100781,-4687,-2343,2048,-55,46,-31
425585,-101562,-3125,-781,2046,-55,46,-31
425587,-101562,-3125,-781,2049,-55,46,-31
425589,-101562,-3125,-781,2058,-55,46,-31
425591,-101562,-3125,-781,2053,-55,46,-31
425593,-101562,-3125,-781,2046,-55,46,-31
425595,-100781,-3906,-781,2054,-55,46,-31
425638,-101562,-5468,-781,2067,-57,44,-31
425640,-101562,-5468,-781,2059,-57,44,-31
425641,-101562,-5468,-781,2061,-57,44,-31
425643,-101562,-5468,-781,2061,-57,44,-31
425644,-101562,-5468,-781,2049,-57,44,-31
425646,-100781,-3906,-1562,2049,-57,44,-31
425647,-100781,-3906,-1562,2048,-57,44,-31
425649,-100781,-3906,-1562,2051,-57,44,-31
425650,-100781,-3906,-1562,2058,-57,44,-31
425652,-100781,-3906,-1562,2061,-57,44,-31
425653,-100781,-3906,-1562,2054,-58,44,-31
425655,-100781,-3906,-1562,2045,-58,44,-31
425656,-100781,-3906,-781,2053,-58,44,-31
425658,-100781,-3906,-781,2061,-58,44,-31
425659,-100781,-3906,-781,2051,-58,44,-31
425661,-100781,-3906,-781,2046,-58,44,-30
425662,-100781,-3906,-781,2056,-58,44,-30
425664,-100781,-3906,-781,2051,-58,44,-30
425665,-100781,-3906,-781,2049,-58,44,-30
425667,-101562,-3906,-781,2057,-58,44,-30
425668,-101562,-3906,-781,2046,-58,44,-30
425670,-101562,-3906,-781,2053,-58,44,-30
425671,-101562,-3906,-781,2046,-58,44,-30
425673,-101562,-3906,-781,2046,-58,44,-30
425674,-101562,-3906,-781,2051,-58,44,-30
425676,-101562,-3906,0,2043,-58,44,-30
425677,-101562,-3906,0,2052,-58,44,-30
425679,-101562,-3906,0,2051,-58,44,-30
425680,-101562,-3906,0,2048,-58,44,-30
425682,-101562,-3906,0,2052,-58,44,-30
425683,-101562,-3906,0,2049,-58,44,-30
425685,-101562,-3906,0,2056,-58,44,-30
425686,-101562,-3906,-2343,2046,-58,44,-30
425688,-101562,-3906,-2343,2047,-58,44,-30
425691,-101562,-3906,-2343,2053,-58,44,-30
425692,-101562,-3906,-2343,2059,-58,44,-30
425694,-101562,-3906,-2343,2054,-58,43,-30
425695,-101562,-3906,-2343,2053,-59,43,-30
425697,-100781,-4687,-1562,2057,-59,43,-30
425698,-100781,-4687,-1562,2056,-59,43,-30
425700,-100781,-4687,-1562,2062,-59,43,-30
425701,-100781,-4687,-1562,2057,-59,43,-30
425703,-100781,-4687,-1562,2045,-59,43,-30
425704,-100781,-4687,-1562,2041,-59,43,-30
425706,-100781,-3906,-2343,2058,-59,43,-30
425707,-100781,-3906,-2343,2052,-59,43,-29
425709,-100781,-3906,-2343,2058,-59,42,-29
425710,-100781,-3906,-2343,2058,-59,42,-29
425712,-100781,-3906,-2343,2061,-59,42,-29
425713,-100781,-3906,-2343,2051,-59,42,-29
425715,-100781,-3906,-2343,2047,-59,42,-29
425716,-100000,-3125,-1562,2048,-59,42,-29
425718,-100000,-3125,-1562,2061,-59,42,-29
425719,-100000,-3125,-1562,2051,-59,42,-29
425721,-100000,-3125,-1562,2048,-59,41,-29
425722,-100000,-3125,-1562,2054,-59,41,-29
425724,-100000,-3125,-1562,2047,-59,41,-29
425725,-100000,-3125,-1562,2051,-60,41,-29
425727,-100000,-3125,-1562,2045,-60,41,-29
425728,-100000,-3125,-1562,2053,-60,41,-29
425730,-100000,-3125,-1562,2051,-60,41,-29
425731,-100000,-3125,-1562,2061,-60,40,-29
425733,-100000,-3125,-1562,2051,-60,40,-29
425734,-100000,-3125,-1562,2056,-60,40,-29
425736,-100000,-3125,-1562,2053,-60,40,-29
425737,-101562,-4687,-1562,2047,-60,40,-28
425739,-101562,-4687,-1562,2056,-60,40,-28
425740,-101562,-4687,-1562,2049,-61,40,-28
425742,-101562,-4687,-1562,2047,-61,40,-28
425759,-100781,-3906,-1562,2043,-61,39,-28
425761,-100781,-3906,-1562,2053,-61,39,-28
425762,-100781,-3906,-1562,2052,-61,39,-28
425764,-100781,-3906,-1562,2041,-61,38,-28
425765,-100781,-3906,-1562,2063,-61,38,-28
425767,-100000,-3906,-2343,2051,-61,38,-28
425768,-100000,-3906,-2343,2049,-61,38,-28
425770,-100000,-3906,-2343,2053,-61,38,-28
425771,-100000,-3906,-2343,2051,-61,38,-28
425773,-100000,-3906,-2343,2057,-61,38,-28
425774,-100000,-3906,-2343,2051,-61,38,-28
425776,-100000,-3906,-2343,2056,-61,38,-28
425777,-100781,-4687,-781,2056,-61,38,-28
425779,-100781,-4687,-781,2054,-61,39,-28
425780,-100781,-4687,-781,2056,-61,39,-28
425782,-100781,-4687,-781,2054,-61,39,-28
425783,-100781,-4687,-781,2056,-61,39,-28
425785,-100781,-4687,-781,2051,-61,39,-28
425786,-100781,-4687,-781,2052,-61,39,-28
425788,-100781,-3906,-1562,2054,-61,39,-28
425789,-100781,-3906,-1562,2051,-61,39,-28
425791,-100781,-3906,-1562,2063,-61,38,-27
425792,-100781,-3906,-1562,2052,-61,38,-27
425794,-100781,-3906,-1562,2049,-61,38,-27
425795,-100781,-3906,-1562,2045,-61,38,-27
425797,-100781,-3906,-1562,2051,-61,38,-27
425798,-101562,-3906,-1562,2049,-61,39,-27
425800,-101562,-3906,-1562,2043,-61,39,-27
425801,-101562,-3906,-1562,2053,-61,39,-27
425803,-101562,-3906,-1562,2053,-61,39,-27
425804,-101562,-3906,-1562,2056,-61,39,-27
425806,-101562,-3906,-1562,2059,-61,39,-27
425807,-100781,-2343,-1562,2061,-61,39,-27
425810,-100781,-2343,-1562,2052,-61,39,-27
425812,-100781,-2343,-1562,2054,-61,39,-27
425813,-100781,-2343,-1562,2058,-61,39,-27
425815,-100781,-2343,-1562,2051,-62,39,-27
425816,-100781,-2343,-1562,2056,-62,39,-27
425818,-100781,-3906,-781,2052,-62,39,-26
425819,-100781,-3906,-781,2059,-62,39,-26
425821,-100781,-3906,-781,2061,-62,39,-26
425822,-100781,-3906,-781,2043,-62,39,-26
425824,-100781,-3906,-781,2063,-62,39,-26
425825,-100781,-3906,-781,2051,-62,39,-26
425827,-100781,-3906,-781,2051,-62,39,-26
425828,-100781,-3906,-1562,2052,-62,39,-26
425830,-100781,-3906,-1562,2049,-62,39,-26
425831,-100781,-3906,-1562,2053,-62,39,-26
425833,-100781,-3906,-1562,2049,-62,39,-26
425834,-100781,-3906,-1562,2053,-63,39,-26
425836,-100781,-3906,-1562,2057,-63,39,-26
425837,-100781,-4687,-2343,2062,-63,39,-26
425839,-100781,-4687,-2343,2049,-63,39,-26
425841,-100781,-4687,-2343,2051,-63,39,-26
425843,-100781,-4687,-2343,2046,-63,39,-26
425845,-100781,-4687,-2343,2052,-63,39,-26
425847,-100781,-4687,-2343,2058,-63,39,-26
425849,-100781,-3906,-781,2049,-63,39,-26
425851,-100781,-3906,-781,2058,-64,38,-26
425853,-100781,-3906,-781,2049,-64,38,-26
425855,-100781,-3906,-781,2053,-64,39,-26
425857,-100781,-3906,-781,2061,-64,38,-26
425859,-100781,-3125,-781,2053,-64,38,-26
425861,-100781,-3125,-781,2052,-64,38,-26
425863,-100781,-3125,-781,2053,-64,38,-26
425865,-100781,-3125,-781,2043,-64,38,-26
425867,-100781,-3125,-781,2049,-64,38,-26
425869,-100000,-4687,-781,2051,-64,38,-25
425886,-100000,-5468,-781,2071,-64,38,-25
425887,-100000,-5468,-781,2051,-65,38,-25
425889,-100781,-4687,-781,2052,-65,37,-25
425890,-100781,-4687,-781,2048,-65,37,-25
425892,-100781,-4687,-781,2056,-65,37,-25
425893,-100781,-4687,-781,2057,-65,37,-25
425895,-100781,-4687,-781,2052,-65,38,-25
425896,-100781,-4687,-781,2052,-65,38,-25
425898,-100781,-4687,-781,2061,-65,38,-25
425899,-100000,-3906,-781,2059,-65,37,-25
425901,-100000,-3906,-781,2048,-65,37,-25
425902,-100000,-3906,-781,2041,-65,37,-25
425904,-100000,-3906,-781,2045,-65,37,-25
425905,-100000,-3906,-781,2049,-65,37,-25
425907,-100000,-3906,-781,2054,-65,38,-25
425908,-100781,-3125,-781,2053,-65,38,-25
425910,-100781,-3125,-781,2051,-65,38,-25
425911,-100781,-3125,-781,2052,-65,38,-25
425913,-100781,-3125,-781,2062,-65,38,-25
425914,-100781,-3125,-781,2056,-65,38,-25
425916,-100781,-3125,-781,2048,-65,38,-25
425917,-100781,-3125,-781,2043,-66,38,-25
425919,-100781,-3906,-1562,2058,-66,38,-25
425920,-100781,-3906,-1562,2059,-65,38,-24
425922,-100781,-3906,-1562,2053,-66,38,-24
425923,-100781,-3906,-1562,2045,-66,38,-24
425925,-100781,-3906,-1562,2046,-66,38,-24
425926,-100781,-3906,-1562,2051,-66,38,-24
425928,-100781,-3906,-1562,2048,-66,39,-24
425929,-100000,-4687,781,2048,-66,39,-24
425931,-100000,-4687,781,2053,-66,39,-24
425933,-100000,-4687,781,2056,-65,39,-24
425935,-100000,-4687,781,2052,-65,39,-24
425937,-100000,-4687,781,2061,-66,39,-24
425939,-100000,-5468,-781,2058,-65,39,-24
425941,-100000,-5468,-781,2061,-65,39,-24
425943,-100000,-5468,-781,2047,-65,40,-24
425945,-100000,-5468,-781,2059,-65,40,-24
425947,-100000,-5468,-781,2048,-65,40,-24
425949,-100000,-3906,0,2052,-65,40,-24
425951,-100000,-3906,0,2048,-65,40,-24
425953,-100000,-3906,0,2045,-65,40,-24
425955,-100000,-3906,0,2046,-65,40,-24
425957,-100000,-3906,0,2043,-65,40,-23
425959,-100000,-3906,-781,2053,-65,40,-24
425961,-100000,-3906,-781,2051,-65,40,-24
425963,-100000,-3906,-781,2053,-65,40,-24
425965,-100000,-3906,-781,2046,-65,40,-24
425967,-100000,-3906,-781,2053,-64,40,-24
425969,-100000,-4687,0,2053,-64,40,-24
425971,-100000,-4687,0,2043,-64,40,-24
425973,-100000,-4687,0,2062,-64,40,-24
425975,-100000,-4687,0,2049,-64,40,-24
425977,-100000,-4687,0,2061,-64,40,-24
425979,-100000,-6250,-781,2046,-64,40,-24
425981,-100000,-6250,-781,2047,-64,40,-24
425983,-100000,-6250,-781,2043,-64,40,-24
425985,-100000,-6250,-781,2054,-64,40,-24
425987,-100000,-6250,-781,2048,-64,40,-24
425989,-100000,-5468,-781,2049,-64,40,-23
425991,-100000,-5468,-781,2041,-64,40,-23
425993,-100000,-5468,-781,2043,-64,40,-23
425995,-100000,-5468,-781,2058,-64,40,-23
425997,-100000,-5468,-781,2043,-64,40,-23
425999,-100000,-5468,-781,2058,-64,40,-23
426001,-99218,-6250,0,2051,-64,40,-23
426003,-99218,-6250,0,2061,-64,40,-23
426005,-99218,-6250,0,2049,-64,40,-23
426007,-99218,-6250,0,2048,-64,40,-23
426009,-99218,-6250,0,2054,-64,39,-23
426011,-100000,-4687,0,2053,-64,40,-23
426013,-100000,-4687,0,2056,-63,40,-23
426015,-100000,-4687,0,2052,-63,40,-23
426017,-100000,-4687,0,2057,-63,40,-23
426019,-100000,-4687,0,2053,-63,40,-23
426021,-100781,-4687,0,2049,-63,40,-23
426023,-100781,-4687,0,2056,-63,40,-23
426025,-100781,-4687,0,2058,-63,40,-23
426027,-100781,-4687,0,2051,-63,40,-23
426029,-100781,-4687,0,2047,-63,40,-23
426031,-99218,-4687,-781,2054,-63,40,-23
426033,-99218,-4687,-781,2056,-63,40,-23
426035,-99218,-4687,-781,2051,-63,40,-23
426037,-99218,-4687,-781,2041,-63,40,-23
426039,-99218,-4687,-781,2051,-63,40,-23
426041,-100000,-4687,781,2052,-63,40,-23
426043,-100000,-4687,781,2051,-62,40,-23
426045,-100000,-4687,781,2047,-63,41,-24
426047,-100000,-4687,781,2047,-62,40,-24
426049,-100000,-4687,781,2053,-62,40,-24
426051,-99218,-6250,781,2057,-62,40,-24
426053,-99218,-6250,781,2051,-62,40,-24
426055,-99218,-6250,781,2047,-62,41,-24
426057,-99218,-6250,781,2047,-62,41,-24
426059,-99218,-6250,781,2052,-62,41,-24
426061,-99218,-4687,0,2057,-62,41,-24
426063,-99218,-4687,0,2047,-62,41,-23
426065,-99218,-4687,0,2046,-61,42,-23
426067,-99218,-4687,0,2053,-62,42,-23
426069,-99218,-4687,0,2061,-61,42,-23
426071,-99218,-5468,-1562,2051,-61,42,-23
426073,-99218,-5468,-1562,2051,-61,42,-23
426075,-99218,-5468,-1562,2061,-61,42,-23
426078,-99218,-5468,-1562,2047,-61,42,-23
426079,-99218,-5468,-1562,2047,-61,42,-23
426081,-100000,-5468,-781,2053,-61,42,-23
426083,-100000,-5468,-781,2045,-61,42,-23
426085,-100000,-5468,-781,2056,-61,42,-23
426087,-100000,-5468,-781,2054,-61,42,-23
426089,-100000,-5468,-781,2051,-61,42,-23
426091,-100000,-4687,0,2049,-61,42,-23
426093,-100000,-4687,0,2047,-61,42,-23
426095,-100000,-4687,0,2054,-61,42,-23
426097,-100000,-4687,0,2052,-61,42,-23
426099,-100000,-4687,0,2052,-61,42,-23
426101,-100000,-4687,-781,2061,-61,42,-24
426103,-100000,-4687,-781,2049,-61,42,-24
426105,-100000,-4687,-781,2059,-61,42,-23
426107,-100000,-4687,-781,2046,-61,42,-23
426109,-100000,-4687,-781,2061,-61,42,-23
426111,-100000,-4687,-781,2046,-61,42,-23
426113,-100000,-4687,-781,2048,-61,42,-23
426115,-100000,-4687,-781,2061,-61,42,-24
426117,-100000,-4687,-781,2051,-61,41,-24
426119,-100000,-4687,-781,2052,-61,41,-24
426121,-100781,-4687,-1562,2051,-61,41,-24
426123,-100781,-4687,-1562,2059,-61,41,-24
426125,-100781,-4687,-1562,2056,-61,41,-24
426127,-100781,-4687,-1562,2048,-61,40,-24
426129,-100781,-4687,-1562,2049,-61,40,-24
426131,-100000,-5468,-1562,2047,-61,40,-24
426133,-100000,-5468,-1562,2045,-61,40,-24
426135,-100000,-5468,-1562,2064,-61,40,-23
426137,-100000,-5468,-1562,2045,-61,40,-23
426139,-100000,-5468,-1562,2056,-61,40,-23
426141,-100000,-4687,-1562,2048,-61,40,-23
426143,-100000,-4687,-1562,2061,-61,40,-23
426146,-100000,-4687,-1562,2045,-61,40,-23
426147,-100000,-4687,-1562,2051,-61,40,-23
426149,-100000,-4687,-1562,2048,-62,40,-23
426151,-100000,-5468,-1562,2051,-62,40,-23
426153,-100000,-5468,-1562,2061,-62,40,-23
426155,-100000,-5468,-1562,2061,-62,40,-23
426157,-100000,-5468,-1562,2071,-62,40,-23
426159,-100000,-5468,-1562,2046,-62,40,-23
426161,-100000,-4687,-1562,2049,-62,40,-23
426163,-100000,-4687,-1562,2041,-62,39,-23
426165,-100000,-4687,-1562,2057,-62,39,-23
426167,-100000,-4687,-1562,2051,-62,39,-24
426169,-100000,-4687,-1562,2046,-62,39,-24
426171,-100000,-4687,-781,2052,-61,39,-24
426173,-100000,-4687,-781,2054,-61,39,-24
426175,-100000,-4687,-781,2051,-62,39,-24
426177,-100000,-4687,-781,2052,-62,39,-24
426179,-100000,-4687,-781,2045,-62,39,-24
426181,-100000,-4687,-781,2047,-62,39,-24
426183,-100781,-3906,-781,2045,-62,39,-24
426185,-100781,-3906,-781,2049,-62,39,-24
426187,-100781,-3906,-781,2049,-62,39,-24
426189,-100781,-3906,-781,2061,-62,39,-24
426191,-100781,-3906,-781,2047,-62,39,-24
426193,-100781,-3906,-2343,2042,-63,38,-24
426195,-100781,-3906,-2343,2066,-63,38,-24
426197,-100781,-3906,-2343,2053,-63,38,-24
426199,-100781,-3906,-2343,2048,-63,38,-24
426201,-100781,-3906,-2343,2048,-63,38,-24
426203,-100000,-5468,-2343,2056,-63,38,-24
426205,-100000,-5468,-2343,2061,-63,38,-24
426208,-100000,-5468,-2343,2058,-63,38,-24
426209,-100000,-5468,-2343,2047,-63,37,-24
426211,-100000,-5468,-2343,2051,-63,37,-24
426213,-100781,-4687,-1562,2053,-63,37,-24
426215,-100781,-4687,-1562,2051,-63,37,-24
426217,-100781,-4687,-1562,2056,-63,37,-24
426219,-100781,-4687,-1562,2059,-63,37,-24
426221,-100781,-4687,-1562,2051,-63,37,-24
426223,-100000,-4687,-2343,2045,-63,37,-24
426225,-100000,-4687,-2343,2052,-63,37,-24
426227,-100000,-4687,-2343,2056,-63,37,-24
426229,-100000,-4687,-2343,2061,-63,37,-24
426231,-100000,-4687,-2343,2051,-63,37,-24
426233,-100781,-5468,-2343,2068,-63,37,-24
426235,-100781,-5468,-2343,2046,-63,36,-24
426237,-100781,-5468,-2343,2052,-63,36,-24
426239,-100781,-5468,-2343,2049,-63,36,-23
426241,-100781,-5468,-2343,2054,-64,36,-24
426243,-100781,-4687,-1562,2047,-64,36,-23
426245,-100781,-4687,-1562,2056,-64,36,-23
426247,-100781,-4687,-1562,2061,-64,36,-24
426249,-100781,-4687,-1562,2054,-64,36,-24
426251,-100781,-4687,-1562,2052,-64,36,-23
426253,-100781,-4687,-2343,2046,-64,36,-23
426255,-100781,-4687,-2343,2052,-64,35,-23
426257,-100781,-4687,-2343,2053,-64,35,-23
426259,-100781,-4687,-2343,2046,-64,35,-23
426261,-100781,-4687,-2343,2053,-64,35,-23
426263,-100000,-3906,-781,2049,-64,35,-23
426265,-100000,-3906,-781,2048,-64,35,-23
426267,-100000,-3906,-781,2051,-64,35,-23
426269,-100000,-3906,-781,2048,-64,35,-23
426271,-100000,-3906,-781,2054,-64,35,-23
426273,-100000,-5468,0,2061,-64,34,-23
426275,-100000,-5468,0,2051,-64,34,-23
426277,-100000,-5468,0,2057,-64,34,-23
426279,-100000,-5468,0,2058,-64,34,-23
426281,-100000,-5468,0,2053,-64,34,-23
426283,-100000,-4687,-1562,2053,-65,34,-23
426285,-100000,-4687,-1562,2048,-64,34,-23
426287,-100000,-4687,-1562,2043,-64,34,-23
426289,-100000,-4687,-1562,2058,-64,34,-23
426291,-100000,-4687,-1562,2061,-64,34,-23
426293,-100000,-5468,-1562,2046,-65,34,-23
426295,-100000,-5468,-1562,2051,-65,34,-22
426297,-100000,-5468,-1562,2048,-65,34,-22
426299,-100000,-5468,-1562,2061,-65,34,-22
426301,-100000,-5468,-1562,2049,-65,34,-23
426303,-100000,-6250,-781,2057,-65,34,-23
426305,-100000,-6250,-781,2053,-65,34,-23
426307,-100000,-6250,-781,2046,-65,34,-23
426309,-100000,-6250,-781,2061,-65,34,-23
426311,-100000,-6250,-781,2045,-65,34,-23
426313,-100781,-6250,-781,2042,-65,34,-23
426315,-100781,-6250,-781,2049,-65,34,-23
426317,-100781,-6250,-781,2059,-65,34,-23
426319,-100781,-6250,-781,2051,-65,34,-24
426321,-100781,-6250,-781,2049,-65,34,-24
426323,-100000,-5468,-1562,2059,-65,34,-24
426325,-100000,-5468,-1562,2056,-65,34,-24
426327,-100000,-5468,-1562,2058,-65,34,-24
426329,-100000,-5468,-1562,2063,-65,34,-24
426331,-100000,-5468,-1562,2048,-65,34,-24
426333,-100000,-5468,0,2045,-65,34,-24
426335,-100000,-5468,0,2048,-65,34,-24
426337,-100000,-5468,0,2052,-65,34,-24
426339,-100000,-5468,0,2046,-65,34,-24
426342,-100000,-5468,0,2054,-65,34,-24
426343,-99218,-5468,-781,2064,-65,34,-24
426345,-99218,-5468,-781,2052,-65,34,-24
426347,-99218,-5468,-781,2054,-65,34,-24
426349,-99218,-5468,-781,2051,-65,34,-24
426351,-99218,-5468,-781,2057,-65,34,-24
426353,-99218,-5468,-781,2056,-65,34,-24
426355,-100000,-4687,0,2058,-65,34,-24
426357,-100000,-4687,0,2061,-65,34,-25
426359,-100000,-4687,0,2054,-65,34,-25
426361,-100000,-4687,0,2052,-64,34,-25
426363,-100000,-4687,0,2056,-64,34,-25
426365,-99218,-7031,-1562,2051,-64,34,-25
426367,-99218,-7031,-1562,2056,-64,34,-25
426369,-99218,-7031,-1562,2051,-64,34,-25
426371,-99218,-7031,-1562,2059,-64,34,-25
426373,-99218,-7031,-1562,2058,-64,34,-25
426375,-100000,-5468,-781,2051,-64,34,-25
426377,-100000,-5468,-781,2061,-64,34,-25
426379,-100000,-5468,-781,2056,-64,34,-25
426381,-100000,-5468,-781,2049,-64,34,-26
426383,-100000,-5468,-781,2049,-64,34,-26
426385,-100781,-5468,781,2061,-64,34,-25
426387,-100781,-5468,781,2058,-63,33,-25
426389,-100781,-5468,781,2057,-64,33,-25
426391,-100781,-5468,781,2054,-64,33,-25
426393,-100781,-5468,781,2046,-64,33,-25
426395,-100000,-7031,-781,2058,-64,33,-25
426397,-100000,-7031,-781,2056,-64,33,-26
426399,-100000,-7031,-781,2047,-64,33,-26
426401,-100000,-7031,-781,2049,-64,33,-26
426403,-100000,-7031,-781,2052,-64,33,-26
426405,-100000,-4687,-781,2051,-64,33,-26
426407,-100000,-4687,-781,2058,-64,33,-26
426409,-100000,-4687,-781,2056,-63,32,-26
426411,-100000,-4687,-781,2046,-63,32,-26
426413,-100000,-4687,-781,2057,-63,32,-26
426441,-100000,-4687,0,2048,-63,32,-26
426443,-100000,-4687,0,2053,-63,32,-26
426445,-100000,-6250,0,2049,-63,32,-26
426446,-100000,-6250,0,2051,-63,32,-26
426448,-100000,-6250,0,2047,-63,32,-26
426449,-100000,-6250,0,2061,-63,32,-26
426451,-100000,-6250,0,2057,-63,32,-26
426452,-100000,-6250,0,2051,-63,32,-26
426454,-100000,-6250,0,2061,-63,32,-26
426455,-100000,-5468,-781,2048,-63,32,-27
426457,-100000,-5468,-781,2051,-63,32,-27
426458,-100000,-5468,-781,2053,-63,32,-27
426460,-100000,-5468,-781,2054,-63,32,-27
426461,-100000,-5468,-781,2046,-63,32,-27
426463,-100000,-5468,-781,2054,-63,32,-27
426464,-100000,-5468,-781,2058,-63,32,-27
426466,-100000,-5468,0,2042,-63,32,-27
426467,-100000,-5468,0,2046,-63,32,-27
426469,-100000,-5468,0,2051,-63,32,-27
426470,-100000,-5468,0,2046,-63,32,-27
426472,-100000,-5468,0,2056,-63,32,-27
426473,-100000,-5468,0,2048,-63,32,-27
426475,-100000,-4687,0,2043,-63,32,-27
426476,-100000,-4687,0,2048,-63,32,-27
426478,-100000,-4687,0,2048,-63,32,-27
426479,-100000,-4687,0,2048,-62,32,-27
426481,-100000,-4687,0,2048,-62,32,-27
426482,-100000,-4687,0,2047,-62,32,-27
426484,-100000,-4687,0,2046,-62,32,-27
426485,-100000,-3906,1562,2058,-62,32,-27
426487,-100000,-3906,1562,2056,-62,32,-27
426488,-100000,-3906,1562,2054,-62,32,-27
426490,-100000,-3906,1562,2058,-62,31,-27
426491,-100000,-3906,1562,2061,-62,31,-27
426493,-100000,-3906,1562,2053,-62,31,-27
426494,-100000,-3906,1562,2052,-62,31,-27
426496,-100000,-4687,0,2051,-62,31,-27
426498,-100000,-4687,0,2057,-62,31,-27
426499,-100000,-4687,0,2051,-62,31,-27
426501,-100000,-4687,0,2051,-62,31,-27
426502,-100000,-4687,0,2047,-62,31,-27
426504,-100000,-4687,0,2061,-62,31,-27
426505,-99218,-6250,0,2057,-61,31,-27
426507,-99218,-6250,0,2057,-61,31,-27
426508,-99218,-6250,0,2051,-62,31,-27
426510,-99218,-6250,0,2056,-62,31,-27
426511,-99218,-6250,0,2053,-62,31,-27
426513,-99218,-6250,0,2045,-62,31,-27
426514,-99218,-6250,0,2049,-61,31,-27
426516,-98437,-5468,781,2053,-61,31,-27
426517,-98437,-5468,781,2056,-61,31,-27
426519,-98437,-5468,781,2049,-61,31,-27
426520,-98437,-5468,781,2064,-61,31,-27
426522,-98437,-5468,781,2061,-61,31,-27
426523,-98437,-5468,781,2046,-61,30,-27
426525,-100000,-5468,-1562,2047,-61,30,-27
426527,-100000,-5468,-1562,2051,-61,30,-27
426529,-100000,-5468,-1562,2048,-61,30,-27
426531,-100000,-5468,-1562,2056,-61,30,-27
426533,-100000,-5468,-1562,2061,-60,30,-27
426535,-100000,-5468,-1562,2056,-60,30,-27
426537,-99218,-5468,0,2045,-60,30,-27
426539,-99218,-5468,0,2047,-60,30,-27
426541,-99218,-5468,0,2046,-60,30,-27
426543,-99218,-5468,0,2061,-60,30,-27
426545,-99218,-5468,0,2053,-60,30,-27
426547,-99218,-5468,781,2041,-60,30,-27
426549,-99218,-5468,781,2043,-60,30,-27
426551,-99218,-5468,781,2042,-60,30,-27
426553,-99218,-5468,781,2046,-60,30,-28
426555,-99218,-5468,781,2054,-60,30,-28
426557,-100000,-5468,-781,2053,-60,30,-27
426559,-100000,-5468,-781,2056,-60,30,-27
426561,-100000,-5468,-781,2066,-60,30,-27
426604,-99218,-7031,781,2053,-58,33,-28
426605,-99218,-7031,781,2048,-58,33,-28
426607,-98437,-5468,781,2049,-58,33,-28
426608,-98437,-5468,781,2056,-58,33,-28
426610,-98437,-5468,781,2046,-58,33,-28
426611,-98437,-5468,781,2051,-58,33,-28
426613,-98437,-5468,781,2043,-57,33,-28
426614,-98437,-5468,781,2045,-57,33,-28
426616,-98437,-5468,781,2046,-57,33,-28
426617,-98437,-5468,1562,2048,-57,33,-28
426619,-98437,-5468,1562,2052,-57,34,-28
426620,-98437,-5468,1562,2058,-57,34,-28
426622,-98437,-5468,1562,2046,-57,34,-28
426623,-98437,-5468,1562,2051,-56,34,-28
426625,-98437,-5468,1562,2051,-56,34,-28
426626,-97656,-7031,781,2045,-56,34,-28
426628,-97656,-7031,781,2049,-56,34,-28
426629,-97656,-7031,781,2051,-56,34,-28
426631,-97656,-7031,781,2051,-56,34,-28
426632,-97656,-7031,781,2051,-56,34,-28
426634,-97656,-7031,781,2056,-56,34,-28
426635,-97656,-7031,781,2053,-56,34,-28
426637,-97656,-7812,781,2043,-55,35,-28
426638,-97656,-7812,781,2054,-55,35,-28
426640,-97656,-7812,781,2052,-55,35,-28
426641,-97656,-7812,781,2046,-55,35,-28
426643,-97656,-7812,781,2057,-55,35,-28
426644,-97656,-7812,781,2048,-55,35,-28
426646,-97656,-7812,781,2051,-55,35,-28
426647,-98437,-6250,1562,2048,-54,35,-28
426649,-98437,-6250,1562,2046,-54,35,-28
426650,-98437,-6250,1562,2058,-54,35,-28
426652,-98437,-6250,1562,2053,-54,35,-28
426653,-98437,-6250,1562,2061,-54,36,-28
426655,-98437,-6250,1562,2054,-54,36,-28
426656,-98437,-6250,1562,2053,-54,36,-28
426660,-98437,-5468,1562,2056,-53,36,-28
426661,-98437,-5468,1562,2051,-53,36,-28
426663,-98437,-5468,1562,2053,-53,37,-28
426664,-98437,-5468,1562,2054,-53,37,-28
426666,-98437,-5468,1562,2052,-52,37,-28
426667,-98437,-6250,781,2051,-52,37,-28
426669,-98437,-6250,781,2048,-52,37,-28
426670,-98437,-6250,781,2052,-52,37,-28
426672,-98437,-6250,781,2043,-52,37,-28
426673,-98437,-6250,781,2053,-51,37,-28
426675,-98437,-6250,781,2051,-51,38,-28
426676,-98437,-6250,781,2045,-51,38,-28
426678,-97656,-6250,2343,2051,-51,38,-28
426679,-97656,-6250,2343,2046,-51,38,-28
426681,-97656,-6250,2343,2046,-50,38,-28
426682,-97656,-6250,2343,2038,-50,38,-28
426684,-97656,-6250,2343,2057,-50,38,-28
426685,-97656,-6250,2343,2053,-50,38,-28
426687,-97656,-6250,2343,2056,-50,39,-28
426688,-97656,-7812,1562,2046,-50,39,-28
426690,-97656,-7812,1562,2051,-50,39,-28
426691,-97656,-7812,1562,2049,-49,39,-28
426693,-97656,-7812,1562,2046,-49,39,-28
426694,-97656,-7812,1562,2051,-49,39,-28
426696,-97656,-7812,1562,2059,-49,40,-28
426697,-98437,-7812,781,2048,-49,40,-28
426699,-98437,-7812,781,2049,-49,40,-28
426700,-98437,-7812,781,2049,-49,40,-28
426702,-98437,-7812,781,2051,-48,40,-28
426703,-98437,-7812,781,2053,-48,41,-28
426705,-98437,-7812,781,2053,-48,41,-28
426706,-98437,-7812,781,2058,-48,41,-28
426708,-98437,-6250,3125,2053,-48,41,-28
426709,-98437,-6250,3125,2058,-47,41,-28
426711,-98437,-6250,3125,2054,-47,41,-28
426712,-98437,-6250,3125,2051,-47,41,-28
426731,-99218,-7031,1562,2049,-45,43,-29
426733,-99218,-7031,1562,2049,-45,43,-29
426734,-99218,-7031,1562,2046,-45,43,-29
426736,-99218,-7031,1562,2049,-44,43,-29
426737,-99218,-7031,1562,2054,-44,43,-29
426739,-98437,-7031,1562,2048,-44,43,-29
426740,-98437,-7031,1562,2062,-44,43,-28
426742,-98437,-7031,1562,2051,-44,43,-29
426743,-98437,-7031,1562,2046,-44,43,-29
426745,-98437,-7031,1562,2061,-44,43,-29
426746,-98437,-7031,1562,2052,-43,44,-29
426748,-98437,-6250,1562,2061,-43,44,-29
426749,-98437,-6250,1562,2047,-43,44,-29
426751,-98437,-6250,1562,2057,-43,44,-29
426752,-98437,-6250,1562,2042,-43,44,-29
426754,-98437,-6250,1562,2059,-43,44,-29
426755,-98437,-6250,1562,2051,-43,44,-29
426757,-98437,-6250,1562,2046,-43,44,-29
426758,-98437,-6250,1562,2046,-43,44,-29
426760,-98437,-6250,1562,2042,-43,44,-29
426761,-98437,-6250,1562,2058,-43,44,-29
426763,-98437,-6250,1562,2052,-43,45,-29
426764,-98437,-6250,1562,2048,-42,45,-29
426766,-98437,-6250,1562,2047,-42,45,-29
426767,-98437,-6250,1562,2053,-42,45,-29
426769,-98437,-5468,1562,2056,-42,45,-29
426770,-98437,-5468,1562,2052,-41,45,-29
426772,-98437,-5468,1562,2051,-41,45,-29
426773,-98437,-5468,1562,2046,-41,45,-29
426775,-98437,-5468,1562,2056,-41,45,-29
426776,-98437,-5468,1562,2064,-41,45,-29
426778,-99218,-5468,1562,2052,-41,45,-29
426779,-99218,-5468,1562,2046,-41,45,-29
426781,-99218,-5468,1562,2048,-41,45,-29
426782,-99218,-5468,1562,2046,-40,45,-29
426786,-99218,-5468,1562,2058,-40,45,-29
426787,-99218,-5468,1562,2047,-40,45,-29
426789,-98437,-7031,1562,2054,-40,46,-29
426790,-98437,-7031,1562,2057,-39,46,-29
426792,-98437,-7031,1562,2048,-39,46,-29
426793,-98437,-7031,1562,2057,-39,46,-29
426795,-98437,-7031,1562,2049,-39,46,-29
426796,-98437,-7031,1562,2049,-39,46,-29
426798,-98437,-7031,1562,2051,-39,46,-29
426799,-98437,-7812,781,2053,-39,46,-29
426801,-98437,-7812,781,2043,-39,47,-29
426802,-98437,-7812,781,2048,-39,47,-29
426804,-98437,-7812,781,2051,-39,47,-29
426805,-98437,-7812,781,2043,-38,47,-29
426807,-98437,-7812,781,2061,-38,47,-28
426808,-98437,-7031,-781,2047,-38,47,-28
426810,-98437,-7031,-781,2048,-38,47,-28
426811,-98437,-7031,-781,2048,-38,47,-28
426813,-98437,-7031,-781,2054,-37,48,-28
426815,-98437,-7031,-781,2048,-37,48,-28
426817,-98437,-7031,-781,2048,-37,48,-28
426819,-98437,-6250,781,2051,-37,48,-29
426821,-98437,-6250,781,2046,-37,49,-29
426823,-98437,-6250,781,2051,-37,49,-29
426825,-98437,-6250,781,2051,-37,49,-29
426827,-98437,-6250,781,2043,-36,49,-29
426829,-98437,-7031,0,2046,-36,50,-29
426831,-98437,-7031,0,2056,-36,50,-29
426833,-98437,-7031,0,2054,-36,50,-29
426835,-98437,-7031,0,2048,-36,50,-29
426837,-98437,-7031,0,2046,-36,50,-29
426839,-98437,-7812,781,2049,-36,51,-29
426841,-98437,-7812,781,2059,-36,51,-29
426843,-98437,-7812,781,2046,-36,51,-28
426846,-98437,-7812,781,2053,-36,51,-28
426847,-98437,-7812,781,2058,-35,52,-28
426849,-98437,-7031,781,2049,-35,52,-28
426851,-98437,-7031,781,2054,-35,52,-28
426853,-98437,-7031,781,2049,-35,52,-28
426855,-98437,-7031,781,2062,-35,52,-28
426857,-98437,-7031,781,2045,-35,52,-28
426859,-98437,-7031,781,2043,-34,53,-28
426861,-98437,-7031,781,2047,-34,53,-28
426863,-98437,-7031,781,2062,-34,53,-28
426865,-98437,-7031,781,2057,-34,53,-28
426867,-98437,-7031,781,2059,-33,53,-28
426869,-98437,-7031,0,2062,-33,53,-28
426871,-98437,-7031,0,2056,-33,54,-28
426873,-98437,-7031,0,2045,-33,54,-28
426875,-98437,-7031,0,2061,-33,54,-28
426877,-98437,-7031,0,2049,-33,54,-28
426879,-98437,-7812,0,2046,-33,55,-28
426881,-98437,-7812,0,2043,-33,55,-28
426883,-98437,-7812,0,2051,-32,55,-28
426885,-98437,-7812,0,2051,-32,55,-28
426887,-98437,-7812,0,2051,-32,55,-28
426889,-98437,-7812,0,2051,-32,56,-28
426891,-99218,-7812,0,2051,-32,56,-28
426893,-99218,-7812,0,2058,-32,56,-28
426895,-99218,-7812,0,2053,-32,56,-28
426897,-99218,-7812,0,2061,-32,56,-28
426899,-99218,-7812,0,2053,-32,56,-28
426901,-99218,-6250,781,2048,-32,56,-28
426903,-99218,-6250,781,2057,-32,56,-27
426905,-99218,-6250,781,2042,-32,57,-28
426907,-99218,-6250,781,2049,-32,57,-28
426909,-99218,-6250,781,2047,-32,57,-28
426912,-99218,-6250,781,2054,-32,57,-28
426913,-99218,-6250,781,2053,-31,57,-28
426915,-99218,-6250,781,2051,-32,57,-27
426917,-99218,-6250,781,2058,-32,57,-27
426919,-99218,-6250,781,2046,-31,57,-27
426921,-99218,-6250,781,2053,-31,57,-27
426923,-99218,-6250,781,2046,-31,58,-27
426925,-99218,-6250,781,2059,-31,58,-27
426927,-99218,-6250,781,2045,-31,58,-27
426929,-99218,-6250,781,2052,-31,58,-27
426931,-99218,-5468,1562,2048,-31,58,-27
426933,-99218,-5468,1562,2048,-30,58,-27
426935,-99218,-5468,1562,2047,-31,58,-27
426937,-99218,-5468,1562,2048,-30,58,-27
426939,-99218,-5468,1562,2054,-30,59,-27
426941,-99218,-7031,781,2046,-30,59,-27
426943,-99218,-7031,781,2061,-30,59,-27
426945,-99218,-7031,781,2048,-30,59,-27
426947,-99218,-7031,781,2056,-30,59,-27
426949,-99218,-7031,781,2052,-30,59,-27
426951,-100000,-7031,0,2051,-30,59,-27
426953,-100000,-7031,0,2056,-30,59,-27
426955,-100000,-7031,0,2049,-29,60,-27
426957,-100000,-7031,0,2061,-29,60,-27
426959,-100000,-7031,0,2056,-29,59,-27
426961,-100000,-7031,0,2049,-29,60,-27
426963,-100000,-7031,0,2049,-29,60,-27
426965,-100000,-7031,0,2051,-29,60,-27
426967,-100000,-7031,0,2051,-29,60,-27
426969,-100000,-7031,0,2048,-29,60,-27
426971,-100000,-5468,0,2046,-29,60,-27
426973,-100000,-5468,0,2049,-29,60,-27
426975,-100000,-5468,0,2051,-29,60,-27
426977,-100000,-5468,0,2056,-29,60,-27
426979,-100000,-5468,0,2048,-29,60,-27
426981,-100781,-4687,-781,2041,-29,60,-27
426984,-100781,-4687,-781,2061,-29,61,-27
426985,-100781,-4687,-781,2053,-29,61,-27
426987,-100781,-4687,-781,2059,-29,61,-27
426989,-100781,-4687,-781,2049,-29,61,-27
426991,-100000,-5468,-1562,2049,-28,61,-26
426993,-100000,-5468,-1562,2056,-28,61,-26
426995,-100000,-5468,-1562,2057,-28,61,-26
426997,-100000,-5468,-1562,2057,-28,61,-26
426999,-100000,-5468,-1562,2057,-28,62,-26
427001,-100781,-6250,-1562,2054,-28,61,-26
427003,-100781,-6250,-1562,2041,-28,61,-26
427005,-100781,-6250,-1562,2061,-28,62,-26
427007,-100781,-6250,-1562,2043,-28,62,-26
427009,-100781,-6250,-1562,2051,-28,62,-26
427011,-100781,-6250,-781,2048,-28,62,-26
427013,-100781,-6250,-781,2054,-28,62,-26
427015,-100781,-6250,-781,2052,-28,62,-26
427017,-100781,-6250,-781,2052,-28,62,-26
427019,-100781,-6250,-781,2051,-28,62,-26
427021,-100781,-6250,-1562,2058,-29,62,-26
427023,-100781,-6250,-1562,2053,-29,62,-27
427025,-100781,-6250,-1562,2049,-29,62,-27
427027,-100781,-6250,-1562,2047,-29,62,-27
427029,-100781,-6250,-1562,2058,-29,62,-27
427031,-101562,-4687,-1562,2051,-29,62,-26
427033,-101562,-4687,-1562,2054,-29,62,-26
427035,-101562,-4687,-1562,2051,-29,62,-26
427037,-101562,-4687,-1562,2052,-29,62,-26
427039,-101562,-4687,-1562,2047,-29,62,-26
427041,-100781,-5468,-1562,2057,-29,62,-26
427043,-100781,-5468,-1562,2054,-29,62,-26
427045,-100781,-5468,-1562,2049,-29,62,-26
427047,-100781,-5468,-1562,2052,-29,62,-26
427050,-100781,-5468,-1562,2061,-29,62,-26
427051,-101562,-3906,-2343,2052,-29,61,-26
427053,-101562,-3906,-2343,2058,-29,61,-26
427055,-101562,-3906,-2343,2061,-29,61,-26
427057,-101562,-3906,-2343,2049,-29,61,-26
427059,-101562,-3906,-2343,2051,-30,61,-26
427061,-101562,-3125,-2343,2061,-30,61,-26
427063,-101562,-3125,-2343,2056,-30,61,-27
427065,-101562,-3125,-2343,2045,-30,61,-27
427067,-101562,-3125,-2343,2041,-30,61,-27
427069,-101562,-3125,-2343,2051,-30,61,-26
427071,-101562,-3125,-2343,2058,-30,61,-26
427073,-100781,-3906,-3125,2058,-30,61,-26
427075,-100781,-3906,-3125,2051,-30,61,-26
427077,-100781,-3906,-3125,2043,-31,61,-26
427079,-100781,-3906,-3125,2051,-31,61,-26
427081,-100781,-3906,-3125,2047,-31,61,-26
427083,-101562,-4687,-3906,2048,-31,61,-26
427085,-101562,-4687,-3906,2045,-31,61,-26
427087,-101562,-4687,-3906,2063,-31,61,-26
427089,-101562,-4687,-3906,2052,-31,61,-26
427091,-101562,-4687,-3906,2051,-32,61,-26
427093,-101562,-3906,-3125,2056,-32,61,-26
427095,-101562,-3906,-3125,2045,-32,61,-26
427097,-101562,-3906,-3125,2056,-32,61,-26
427099,-101562,-3906,-3125,2045,-32,61,-26
427101,-101562,-3906,-3125,2045,-32,61,-26
427103,-101562,-2343,-3906,2063,-32,61,-26
427105,-101562,-2343,-3906,2047,-32,61,-26
427107,-101562,-2343,-3906,2053,-32,61,-26
427109,-101562,-2343,-3906,2059,-32,61,-26
427111,-101562,-2343,-3906,2054,-32,60,-26
427113,-102343,-2343,-3906,2053,-33,60,-26
427116,-102343,-2343,-3906,2048,-33,60,-26
427117,-102343,-2343,-3906,2049,-33,60,-26
427119,-102343,-2343,-3906,2056,-33,60,-26
427121,-102343,-2343,-3906,2056,-34,60,-26
427123,-102343,-2343,-4687,2051,-34,59,-26
427125,-102343,-2343,-4687,2052,-34,59,-26
427127,-102343,-2343,-4687,2061,-34,59,-26
427129,-102343,-2343,-4687,2056,-35,59,-25
427131,-102343,-2343,-4687,2051,-35,59,-26
427133,-103125,-2343,-3125,2053,-35,59,-26
427135,-103125,-2343,-3125,2043,-35,59,-25
427137,-103125,-2343,-3125,2064,-35,58,-25
427139,-103125,-2343,-3125,2059,-35,58,-25
427141,-103125,-2343,-3125,2049,-36,57,-25
427143,-102343,-3125,-3906,2054,-36,57,-25
427145,-102343,-3125,-3906,2045,-36,57,-25
427147,-102343,-3125,-3906,2043,-36,57,-25
427149,-102343,-3125,-3906,2045,-36,57,-25
427151,-102343,-3125,-3906,2049,-37,57,-25
427153,-102343,-3125,-3906,2051,-37,57,-25
427155,-102343,-3125,-3906,2053,-37,56,-25
427157,-102343,-3125,-3906,2049,-37,56,-25
427159,-102343,-3125,-3906,2047,-38,56,-25
427161,-102343,-3125,-3906,2061,-38,56,-25
427163,-102343,-2343,-3906,2057,-38,56,-25
427165,-102343,-2343,-3906,2049,-38,55,-25
427167,-102343,-2343,-3906,2048,-39,55,-25
427169,-102343,-2343,-3906,2057,-39,55,-25
427171,-102343,-2343,-3906,2057,-39,54,-25
427173,-102343,-3906,-4687,2046,-40,54,-25
427175,-102343,-3906,-4687,2059,-40,54,-25
427177,-102343,-3906,-4687,2054,-40,54,-25
427179,-102343,-3906,-4687,2056,-41,53,-25
427181,-102343,-3906,-4687,2051,-41,53,-25
427184,-103125,-3906,-5468,2047,-41,53,-25
427185,-103125,-3906,-5468,2056,-41,53,-25
427187,-103125,-3906,-5468,2059,-42,53,-25
427189,-103125,-3906,-5468,2052,-42,53,-25
427191,-103125,-3906,-5468,2061,-42,53,-25
427193,-103125,-3125,-5468,2063,-42,52,-25
427195,-103125,-3125,-5468,2053,-42,52,-25
427197,-103125,-3125,-5468,2049,-43,52,-25
427199,-103125,-3125,-5468,2048,-43,52,-25
427201,-103125,-3125,-5468,2051,-43,52,-25
427203,-103906,-3125,-3906,2051,-43,52,-25
427205,-103906,-3125,-3906,2046,-44,52,-25
427207,-103906,-3125,-3906,2061,-44,51,-25
427209,-103906,-3125,-3906,2047,-44,51,-25
427211,-103906,-3125,-3906,2051,-45,51,-25
427213,-103125,-3125,-4687,2051,-45,51,-25
427215,-103125,-3125,-4687,2047,-45,51,-25
427217,-103125,-3125,-4687,2049,-45,51,-25
427219,-103125,-3125,-4687,2059,-45,51,-25
427221,-103125,-3125,-4687,2053,-46,51,-25
427223,-103125,-3906,-4687,2046,-46,50,-25
427225,-103125,-3906,-4687,2051,-46,50,-25
427227,-103125,-3906,-4687,2049,-47,50,-25
427229,-103125,-3906,-4687,2043,-47,50,-24
427231,-103125,-3906,-4687,2046,-47,50,-24
427233,-103125,-2343,-4687,2043,-47,50,-24
427235,-103125,-2343,-4687,2064,-48,49,-25
427237,-103125,-2343,-4687,2052,-48,49,-25
427239,-103125,-2343,-4687,2063,-48,49,-25
427241,-103125,-2343,-4687,2043,-49,49,-25
427243,-103125,-2343,-4687,2059,-49,49,-25
427245,-103125,-3906,-3906,2059,-49,49,-24
427247,-103125,-3906,-3906,2051,-49,48,-24
427249,-103125,-3906,-3906,2046,-50,48,-25
427251,-103125,-3906,-3906,2058,-50,48,-25
427253,-103125,-3906,-3906,2052,-50,48,-25
427255,-103125,-3125,-3906,2051,-50,48,-24
427257,-103125,-3125,-3906,2042,-50,48,-24
427259,-103125,-3125,-3906,2048,-51,47,-24
427262,-103125,-3125,-3906,2057,-51,47,-24
427263,-103125,-3125,-3906,2046,-51,48,-24
427265,-102343,-3125,-3906,2061,-52,47,-24
427267,-102343,-3125,-3906,2058,-52,47,-24
427269,-102343,-3125,-3906,2043,-52,47,-24
427271,-102343,-3125,-3906,2058,-52,47,-24
427273,-102343,-3125,-3906,2054,-53,47,-24
427275,-103906,-4687,-3125,2058,-53,47,-24
427277,-103906,-4687,-3125,2052,-53,46,-24
427279,-103906,-4687,-3125,2049,-53,46,-24
427281,-103906,-4687,-3125,2048,-54,46,-24
427283,-103906,-4687,-3125,2051,-54,46,-24
427285,-103125,-4687,-3906,2043,-55,46,-24
427287,-103125,-4687,-3906,2041,-55,46,-24
427289,-103125,-4687,-3906,2049,-55,46,-24
427291,-103125,-4687,-3906,2047,-55,46,-24
427293,-103125,-4687,-3906,2056,-55,46,-24
427295,-102343,-4687,-3906,2061,-56,45,-24
427297,-102343,-4687,-3906,2049,-56,45,-24
427299,-102343,-4687,-3906,2053,-56,45,-24
427301,-102343,-4687,-3906,2046,-56,45,-24
427303,-102343,-4687,-3906,2051,-56,45,-24
427305,-102343,-3906,-1562,2046,-57,45,-24
427307,-102343,-3906,-1562,2051,-57,45,-24
427309,-102343,-3906,-1562,2056,-57,45,-24
427311,-102343,-3906,-1562,2054,-57,45,-24
427313,-102343,-3906,-1562,2051,-58,45,-24
427315,-102343,-4687,-1562,2049,-58,45,-24
427317,-102343,-4687,-1562,2043,-58,44,-24
427319,-102343,-4687,-1562,2052,-58,44,-24
427321,-102343,-4687,-1562,2051,-59,44,-24
427323,-102343,-4687,-1562,2061,-59,44,-24
427325,-102343,-4687,-3125,2049,-59,44,-24
427327,-102343,-4687,-3125,2063,-59,44,-24
427329,-102343,-4687,-3125,2047,-59,43,-24
427331,-102343,-4687,-3125,2051,-59,43,-24
427333,-102343,-4687,-3125,2056,-60,43,-24
427335,-102343,-4687,-2343,2054,-60,43,-24
427337,-102343,-4687,-2343,2058,-60,43,-23
427339,-102343,-4687,-2343,2067,-60,43,-24
427341,-102343,-4687,-2343,2061,-60,43,-24
427343,-102343,-4687,-2343,2058,-61,43,-24
427345,-102343,-5468,-2343,2045,-61,43,-24
427347,-102343,-5468,-2343,2051,-61,43,-24
427349,-102343,-5468,-2343,2054,-61,44,-24
427351,-102343,-5468,-2343,2043,-61,44,-24
427353,-102343,-5468,-2343,2046,-61,44,-24
427355,-103125,-5468,-2343,2046,-61,44,-24
427357,-103125,-5468,-2343,2056,-62,44,-24
427359,-103125,-5468,-2343,2051,-62,44,-24
427361,-103125,-5468,-2343,2058,-62,44,-24
427363,-103125,-5468,-2343,2057,-62,44,-24
427365,-102343,-4687,-3906,2046,-62,44,-24
427367,-102343,-4687,-3906,2052,-62,44,-24
427369,-102343,-4687,-3906,2061,-63,44,-24
427371,-102343,-4687,-3906,2053,-63,44,-24
427373,-102343,-4687,-3906,2061,-63,43,-24
427375,-103125,-4687,-3125,2042,-63,43,-24
427377,-103125,-4687,-3125,2053,-63,43,-24
427379,-103125,-4687,-3125,2049,-63,43,-24
427381,-103125,-4687,-3125,2053,-63,43,-24
427383,-103125,-4687,-3125,2054,-63,43,-24
427385,-102343,-4687,-3125,2053,-64,43,-24
427387,-102343,-4687,-3125,2053,-64,43,-24
427390,-102343,-4687,-3125,2054,-64,43,-24
427391,-102343,-4687,-3125,2051,-64,43,-24
427393,-102343,-4687,-3125,2056,-65,43,-24
427395,-102343,-4687,-2343,2048,-65,43,-24
427397,-102343,-4687,-2343,2052,-65,43,-24
427399,-102343,-4687,-2343,2057,-65,43,-24
427401,-102343,-4687,-2343,2051,-65,43,-24
427403,-102343,-4687,-2343,2057,-66,43,-24
427405,-102343,-5468,-3906,2045,-66,43,-24
427407,-102343,-5468,-3906,2049,-66,42,-24
427409,-102343,-5468,-3906,2046,-66,42,-24
427411,-102343,-5468,-3906,2042,-66,42,-24
427413,-102343,-5468,-3906,2047,-66,42,-24
427415,-102343,-5468,-2343,2053,-67,42,-24
427417,-102343,-5468,-2343,2049,-67,42,-24
427419,-102343,-5468,-2343,2061,-67,42,-24
427421,-102343,-5468,-2343,2061,-67,42,-24
427423,-102343,-5468,-2343,2043,-68,42,-24
427425,-102343,-5468,-2343,2058,-68,42,-24
427427,-101562,-5468,-3125,2049,-68,42,-24
427429,-101562,-5468,-3125,2052,-68,42,-24
427431,-101562,-5468,-3125,2047,-68,42,-24
427433,-101562,-5468,-3125,2057,-68,42,-24
427435,-101562,-5468,-3125,2056,-69,42,-24
427437,-101562,-5468,-1562,2046,-69,42,-24
427439,-101562,-5468,-1562,2046,-69,42,-24
427441,-101562,-5468,-1562,2062,-70,42,-24
427443,-101562,-5468,-1562,2048,-70,42,-24
427445,-101562,-5468,-1562,2061,-70,42,-24
427448,-101562,-5468,-1562,2058,-70,42,-24
427449,-101562,-5468,-1562,2054,-70,42,-24
427451,-101562,-5468,-1562,2045,-70,42,-24
427453,-101562,-5468,-1562,2056,-70,41,-24
427455,-101562,-5468,-1562,2048,-70,42,-24
427457,-101562,-4687,-1562,2061,-71,42,-24
427459,-101562,-4687,-1562,2051,-71,42,-24
427461,-101562,-4687,-1562,2053,-71,42,-24
427463,-101562,-4687,-1562,2057,-71,42,-24
427465,-101562,-4687,-1562,2051,-71,42,-24
427467,-100781,-6250,-781,2059,-71,42,-24
427469,-100781,-6250,-781,2046,-71,42,-24
427471,-100781,-6250,-781,2051,-72,42,-24
427473,-100781,-6250,-781,2047,-72,42,-24
427475,-100781,-6250,-781,2043,-72,42,-24
427477,-101562,-5468,-1562,2046,-72,42,-24
427479,-101562,-5468,-1562,2046,-72,42,-25
427481,-101562,-5468,-1562,2046,-72,42,-25
427483,-101562,-5468,-1562,2052,-72,42,-25
427485,-101562,-5468,-1562,2041,-72,42,-25
427487,-102343,-5468,-1562,2046,-72,42,-25
427489,-102343,-5468,-1562,2048,-72,42,-25
427491,-102343,-5468,-1562,2049,-72,42,-25
427493,-102343,-5468,-1562,2052,-72,42,-25
427495,-102343,-5468,-1562,2057,-72,42,-25
427497,-100781,-6250,-2343,2042,-72,43,-25
427499,-100781,-6250,-2343,2051,-72,42,-25
427501,-100781,-6250,-2343,2058,-73,42,-25
427503,-100781,-6250,-2343,2045,-73,43,-25
427505,-100781,-6250,-2343,2051,-73,43,-25
427508,-100000,-7812,-2343,2052,-73,43,-26
427509,-100000,-7812,-2343,2047,-73,43,-26
427511,-100000,-7812,-2343,2057,-73,43,-25
427513,-100000,-7812,-2343,2052,-73,43,-25
427515,-100000,-7812,-2343,2051,-74,43,-25
427517,-100781,-5468,-1562,2047,-74,43,-25
427519,-100781,-5468,-1562,2048,-74,43,-25
427521,-100781,-5468,-1562,2054,-74,43,-25
427523,-100781,-5468,-1562,2049,-74,44,-25
427525,-100781,-5468,-1562,2051,-74,44,-25
427527,-100781,-6250,-781,2047,-74,44,-25
427529,-100781,-6250,-781,2045,-74,44,-25
427531,-100781,-6250,-781,2054,-74,44,-25
427533,-100781,-6250,-781,2048,-74,44,-25
427535,-100781,-6250,-781,2047,-74,44,-25
427537,-100000,-6250,0,2051,-74,44,-25
427539,-100000,-6250,0,2048,-75,44,-25
427541,-100000,-6250,0,2057,-75,44,-25
427543,-100000,-6250,0,2062,-75,44,-25
427545,-100000,-6250,0,2051,-75,44,-25
427547,-100000,-7031,-781,2046,-75,44,-25
427549,-100000,-7031,-781,2049,-75,44,-25
427551,-100000,-7031,-781,2053,-75,44,-25
427553,-100000,-7031,-781,2052,-75,43,-25
427555,-100000,-7031,-781,2054,-75,43,-25
427557,-100000,-6250,0,2062,-75,43,-25
427559,-100000,-6250,0,2057,-75,44,-25
427561,-100000,-6250,0,2045,-75,44,-25
427563,-100000,-6250,0,2058,-75,44,-25
427565,-100000,-6250,0,2043,-75,43,-25
427567,-100781,-7031,-781,2049,-75,43,-25
427570,-100781,-7031,-781,2045,-75,43,-25
427571,-100781,-7031,-781,2052,-75,43,-25
427573,-100781,-7031,-781,2051,-75,43,-25
427575,-100781,-7031,-781,2052,-75,43,-25
427577,-100000,-7031,0,2047,-75,43,-25
427579,-100000,-7031,0,2056,-75,43,-25
427581,-100000,-7031,0,2045,-75,43,-25
427583,-100000,-7031,0,2045,-75,43,-25
427585,-100000,-7031,0,2056,-75,43,-25
427587,-100000,-7031,0,2049,-75,43,-25
427589,-100000,-7031,0,2051,-75,43,-25
427591,-100000,-7031,0,2054,-75,43,-25
427593,-100000,-7031,0,2049,-76,43,-25
427595,-100000,-7031,0,2056,-76,44,-26
427597,-100000,-7031,0,2057,-76,44,-26
427599,-100000,-7031,0,2046,-75,44,-26
427601,-100000,-7031,0,2042,-75,44,-26
427603,-100000,-7031,0,2057,-75,44,-26
427605,-100000,-7031,0,2049,-75,44,-26
427607,-100000,-7031,0,2052,-75,44,-26
427609,-100000,-6250,0,2043,-75,44,-26
427611,-100000,-6250,0,2045,-75,45,-26
427613,-100000,-6250,0,2049,-75,45,-26
427615,-100000,-6250,0,2051,-75,45,-26
427617,-100000,-6250,0,2042,-75,45,-26
427619,-99218,-7031,0,2047,-75,45,-26
427621,-99218,-7031,0,2054,-75,45,-26
427623,-99218,-7031,0,2047,-75,45,-26
427625,-99218,-7031,0,2042,-75,45,-26
427627,-99218,-7031,0,2061,-75,45,-26
427629,-99218,-6250,781,2061,-75,45,-27
427631,-99218,-6250,781,2054,-75,45,-27
427633,-99218,-6250,781,2048,-75,46,-27
427635,-99218,-6250,781,2058,-75,46,-27
427637,-99218,-6250,781,2054,-75,46,-27
427639,-100000,-6250,-781,2053,-75,46,-27
427641,-100000,-6250,-781,2045,-75,46,-27
427643,-100000,-6250,-781,2057,-75,46,-27
427645,-100000,-6250,-781,2061,-74,46,-27
427647,-100000,-6250,-781,2046,-74,46,-27
427649,-100000,-6250,0,2061,-74,46,-27
427651,-100000,-6250,0,2049,-74,46,-27
427653,-100000,-6250,0,2057,-74,46,-27
427655,-100000,-6250,0,2051,-74,46,-27
427657,-100000,-6250,0,2043,-74,46,-27
427659,-100000,-5468,1562,2056,-74,46,-27
427661,-100000,-5468,1562,2046,-74,46,-27
427663,-100000,-5468,1562,2058,-74,46,-26
427665,-100000,-5468,1562,2056,-74,46,-27
427667,-100000,-5468,1562,2061,-73,46,-27
427669,-100000,-5468,781,2043,-73,46,-26
427671,-100000,-5468,781,2049,-73,46,-27
427673,-100000,-5468,781,2051,-73,46,-27
427675,-100000,-5468,781,2051,-73,46,-27
427677,-100000,-5468,781,2053,-73,46,-27
427679,-98437,-5468,0,2042,-73,46,-27
427681,-98437,-5468,0,2049,-73,46,-27
427683,-98437,-5468,0,2051,-73,46,-27
427685,-98437,-5468,0,2053,-73,46,-27
427687,-98437,-5468,0,2042,-73,46,-27
427689,-100000,-5468,781,2051,-73,46,-27
427691,-100000,-5468,781,2043,-73,45,-27
427693,-100000,-5468,781,2057,-73,45,-27
427695,-100000,-5468,781,2049,-73,45,-27
427697,-100000,-5468,781,2046,-73,45,-27
427699,-99218,-3906,-1562,2052,-73,45,-27
427701,-99218,-3906,-1562,2057,-73,44,-27
427703,-99218,-3906,-1562,2058,-73,44,-27
427705,-99218,-3906,-1562,2059,-73,44,-27
427707,-99218,-3906,-1562,2048,-72,44,-27
427709,-100000,-5468,-781,2054,-72,44,-27
427711,-100000,-5468,-781,2058,-72,44,-27
427713,-100000,-5468,-781,2058,-72,44,-27
427715,-100000,-5468,-781,2046,-72,44,-27
427717,-100000,-5468,-781,2051,-72,44,-27
427719,-99218,-4687,781,2054,-72,44,-27
427721,-99218,-4687,781,2062,-72,44,-27
427723,-99218,-4687,781,2051,-72,44,-27
427725,-99218,-4687,781,2051,-72,44,-27
427727,-99218,-4687,781,2057,-72,44,-27
427729,-99218,-4687,781,2053,-72,44,-27
427731,-99218,-4687,781,2048,-72,44,-27
427733,-99218,-4687,781,2058,-72,44,-27
427735,-99218,-4687,781,2047,-71,44,-27
427737,-99218,-4687,781,2051,-71,44,-27
427739,-99218,-5468,0,2053,-71,44,-27
427741,-99218,-5468,0,2051,-71,44,-27
427743,-99218,-5468,0,2045,-71,44,-27
427745,-99218,-5468,0,2057,-71,44,-27
427747,-99218,-5468,0,2048,-71,44,-27
427749,-99218,-5468,781,2058,-71,44,-27
427751,-99218,-5468,781,2052,-71,44,-27
427753,-99218,-5468,781,2056,-71,44,-27
427755,-99218,-5468,781,2042,-71,44,-27
427757,-99218,-5468,781,2053,-71,44,-27
427759,-98437,-5468,0,2051,-71,44,-27
427761,-98437,-5468,0,2048,-71,44,-27
427763,-98437,-5468,0,2042,-71,44,-27
427766,-98437,-5468,0,2042,-71,44,-28
427767,-98437,-5468,0,2061,-71,44,-28
427769,-99218,-4687,781,2049,-70,44,-28
427771,-99218,-4687,781,2054,-70,43,-28
427773,-99218,-4687,781,2046,-70,43,-28
427775,-99218,-4687,781,2054,-70,43,-28
427777,-99218,-4687,781,2056,-70,43,-27
427779,-99218,-4687,781,2046,-70,43,-27
427781,-99218,-3125,781,2047,-70,43,-27
427783,-99218,-3125,781,2058,-70,43,-27
427785,-99218,-3125,781,2052,-70,43,-27
427787,-99218,-3125,781,2056,-70,43,-27
427789,-99218,-3125,781,2057,-69,42,-27
427791,-98437,-4687,1562,2046,-69,42,-27
427793,-98437,-4687,1562,2054,-69,42,-27
427795,-98437,-4687,1562,2052,-69,43,-27
427797,-98437,-4687,1562,2051,-69,42,-27
427799,-98437,-4687,1562,2057,-69,42,-27
427801,-98437,-4687,0,2046,-69,42,-27
427803,-98437,-4687,0,2047,-69,42,-27
427805,-98437,-4687,0,2042,-69,42,-27
427807,-98437,-4687,0,2043,-69,42,-27
427809,-98437,-4687,0,2043,-68,42,-27
427811,-98437,-6250,-1562,2057,-68,41,-26
427813,-98437,-6250,-1562,2059,-68,41,-26
427815,-98437,-6250,-1562,2048,-68,41,-26
427817,-98437,-6250,-1562,2043,-68,41,-26
427819,-98437,-6250,-1562,2051,-68,41,-26
427821,-98437,-3125,0,2046,-68,41,-26
427823,-98437,-3125,0,2052,-68,41,-26
427825,-98437,-3125,0,2045,-68,41,-26
427827,-98437,-3125,0,2056,-68,41,-26
427829,-98437,-3125,0,2056,-68,41,-26
427831,-98437,-4687,781,2051,-67,41,-26
427833,-98437,-4687,781,2053,-67,41,-26
427835,-98437,-4687,781,2063,-67,40,-26
427837,-98437,-4687,781,2049,-67,40,-26
427839,-98437,-4687,781,2051,-67,40,-26
427841,-99218,-3906,781,2051,-67,40,-26
427843,-99218,-3906,781,2057,-66,40,-26
427845,-99218,-3906,781,2056,-66,39,-26
427847,-99218,-3906,781,2049,-66,39,-26
427849,-99218,-3906,781,2061,-66,39,-27
427851,-99218,-4687,1562,2049,-66,39,-26
427853,-99218,-4687,1562,2061,-66,39,-26
427855,-99218,-4687,1562,2051,-66,39,-26
427857,-99218,-4687,1562,2054,-66,39,-26
427859,-99218,-4687,1562,2041,-65,38,-26
427861,-98437,-3125,781,2061,-65,38,-27
427863,-98437,-3125,781,2047,-65,38,-27
427865,-98437,-3125,781,2045,-65,38,-27
427867,-98437,-3125,781,2052,-65,38,-27
427869,-98437,-3125,781,2053,-65,37,-27
427871,-99218,-3906,781,2053,-65,37,-27
427873,-99218,-3906,781,2057,-64,37,-27
427875,-99218,-3906,781,2041,-64,37,-27
427877,-99218,-3906,781,2058,-64,37,-27
427879,-99218,-3906,781,2046,-64,37,-27
427881,-99218,-3125,1562,2057,-64,37,-27
427883,-99218,-3125,1562,2053,-64,36,-27
427885,-99218,-3125,1562,2054,-64,36,-27
427887,-99218,-3125,1562,2048,-63,36,-27
427889,-99218,-3125,1562,2056,-63,36,-27
427891,-98437,-3906,0,2053,-63,36,-27
427893,-98437,-3906,0,2056,-63,36,-27
427895,-98437,-3906,0,2049,-63,35,-27
427897,-98437,-3906,0,2043,-62,35,-27
427900,-98437,-3906,0,2052,-62,35,-27
427901,-98437,-5468,781,2062,-62,35,-27
427903,-98437,-5468,781,2048,-62,35,-27
427905,-98437,-5468,781,2057,-62,35,-27
427907,-98437,-5468,781,2047,-62,34,-27
427909,-98437,-5468,781,2047,-61,34,-27
427911,-98437,-3125,781,2051,-62,34,-27
427913,-98437,-3125,781,2046,-61,34,-27
427915,-98437,-3125,781,2051,-61,34,-27
427917,-98437,-3125,781,2058,-61,34,-27
427919,-98437,-3125,781,2052,-61,34,-27
427921,-99218,-3125,0,2057,-60,33,-27
427923,-99218,-3125,0,2046,-60,33,-26
427925,-99218,-3125,0,2043,-60,33,-26
427927,-99218,-3125,0,2061,-60,33,-26
427929,-99218,-3125,0,2051,-60,32,-26
427931,-99218,-3125,781,2046,-59,32,-26
427933,-99218,-3125,781,2056,-59,32,-26
427935,-99218,-3125,781,2051,-59,31,-26
427937,-99218,-3125,781,2046,-59,31,-26
427939,-99218,-3125,781,2051,-59,31,-26
427941,-99218,-3906,781,2046,-59,31,-26
427943,-99218,-3906,781,2054,-59,31,-26
427945,-99218,-3906,781,2056,-58,31,-26
427947,-99218,-3906,781,2053,-58,30,-26
427949,-99218,-3906,781,2045,-58,30,-26
427951,-97656,-3906,781,2057,-58,30,-26
427953,-97656,-3906,781,2057,-57,30,-26
427955,-97656,-3906,781,2045,-57,30,-26
427957,-97656,-3906,781,2051,-57,29,-26
427959,-97656,-3906,781,2054,-57,29,-26
427961,-97656,-3906,781,2043,-57,29,-26
427963,-97656,-3906,2343,2053,-57,29,-26
427965,-97656,-3906,2343,2052,-57,29,-26
427967,-97656,-3906,2343,2054,-57,28,-26
427969,-97656,-3906,2343,2048,-56,28,-26
427972,-98437,-3125,781,2053,-56,28,-26
427973,-98437,-3125,781,2056,-56,28,-26
427975,-98437,-3125,781,2061,-56,28,-26
427977,-98437,-3125,781,2047,-55,28,-26
427979,-98437,-3125,781,2054,-55,28,-26
427981,-98437,-3125,781,2059,-55,27,-26
427983,-97656,-4687,781,2054,-55,27,-26
427985,-97656,-4687,781,2057,-55,27,-26
427987,-97656,-4687,781,2046,-54,27,-26
427989,-97656,-4687,781,2042,-54,27,-26
427991,-97656,-4687,781,2051,-54,27,-25
427993,-97656,-4687,781,2059,-54,27,-25
427995,-97656,-4687,781,2051,-54,26,-25
427997,-97656,-4687,781,2051,-54,26,-25
427999,-97656,-4687,781,2051,-53,26,-25
428001,-97656,-4687,781,2054,-53,26,-25
428003,-97656,-3906,781,2061,-53,26,-25
428005,-97656,-3906,781,2046,-53,25,-26
428007,-97656,-3906,781,2051,-52,25,-26
428009,-97656,-3906,781,2052,-52,25,-25
428011,-97656,-3906,781,2062,-52,25,-26
428013,-97656,-2343,0,2049,-52,25,-26
428015,-97656,-2343,0,2046,-52,25,-25
428017,-97656,-2343,0,2047,-52,25,-25
428019,-97656,-2343,0,2051,-51,25,-25
428021,-97656,-2343,0,2051,-51,25,-25
428023,-97656,-3906,781,2046,-51,24,-25
428025,-97656,-3906,781,2045,-51,24,-25
428027,-97656,-3906,781,2052,-50,24,-25
428029,-97656,-3906,781,2051,-50,24,-25
428031,-97656,-3906,781,2056,-50,24,-25
428033,-98437,-3906,781,2045,-50,24,-25
428035,-98437,-3906,781,2043,-50,24,-25
428038,-98437,-3906,781,2054,-50,24,-25
428039,-98437,-3906,781,2053,-49,24,-25
428041,-98437,-3906,781,2057,-49,23,-25
428043,-96875,-4687,781,2061,-49,23,-24
428045,-96875,-4687,781,2045,-49,23,-24
428047,-96875,-4687,781,2066,-49,23,-24
428049,-96875,-4687,781,2049,-49,22,-24
428051,-96875,-4687,781,2048,-49,22,-24
428053,-97656,-4687,0,2043,-49,22,-24
428055,-97656,-4687,0,2051,-48,22,-24
428057,-97656,-4687,0,2049,-48,21,-24
428059,-97656,-4687,0,2056,-48,21,-24
428061,-97656,-4687,0,2052,-48,21,-24
428063,-98437,-3906,1562,2052,-48,21,-24
428065,-98437,-3906,1562,2046,-47,21,-24
428067,-98437,-3906,1562,2051,-47,21,-24
428069,-98437,-3906,1562,2051,-47,21,-24
428071,-98437,-3906,1562,2053,-47,20,-24
428073,-97656,-3125,1562,2052,-47,20,-24
428075,-97656,-3125,1562,2058,-47,20,-24
428077,-97656,-3125,1562,2043,-47,20,-25
428079,-97656,-3125,1562,2041,-47,20,-25
428081,-97656,-3125,1562,2047,-46,20,-24
428083,-98437,-3906,781,2046,-46,20,-24
428085,-98437,-3906,781,2052,-46,20,-24
428087,-98437,-3906,781,2052,-46,20,-24
428089,-98437,-3906,781,2043,-46,19,-24
428091,-98437,-3906,781,2046,-46,19,-24
428093,-97656,-3125,1562,2057,-45,19,-24
428095,-97656,-3125,1562,2057,-45,19,-24
428097,-97656,-3125,1562,2046,-45,19,-24
428099,-97656,-3125,1562,2045,-45,18,-24
428101,-97656,-3125,1562,2051,-44,18,-24
428103,-97656,-4687,781,2053,-44,18,-23
428105,-97656,-4687,781,2058,-44,18,-23
428107,-97656,-4687,781,2049,-44,17,-23
428109,-97656,-4687,781,2046,-44,17,-23
428111,-97656,-4687,781,2049,-44,17,-23
428113,-96875,-4687,781,2056,-43,17,-23
428115,-96875,-4687,781,2045,-43,17,-23
428117,-96875,-4687,781,2049,-43,17,-23
428119,-96875,-4687,781,2048,-43,16,-23
428121,-96875,-4687,781,2056,-43,16,-23
428123,-97656,-4687,781,2054,-42,17,-23
428125,-97656,-4687,781,2061,-42,17,-23
428127,-97656,-4687,781,2051,-42,17,-23
428129,-97656,-4687,781,2046,-42,17,-23
428131,-97656,-4687,781,2051,-41,17,-23
428133,-97656,-4687,781,2046,-41,17,-23
428135,-96875,-5468,1562,2052,-41,16,-23
428137,-96875,-5468,1562,2052,-41,16,-23
428139,-96875,-5468,1562,2042,-41,16,-23
428141,-96875,-5468,1562,2043,-41,16,-23
428143,-96875,-5468,1562,2045,-40,16,-23
428145,-96875,-4687,1562,2046,-40,16,-23
428147,-96875,-4687,1562,2053,-40,16,-23
428149,-96875,-4687,1562,2053,-40,16,-22
428151,-96875,-4687,1562,2051,-40,16,-22
428153,-96875,-4687,1562,2052,-40,16,-23
428155,-97656,-4687,1562,2054,-39,16,-23
428157,-97656,-4687,1562,2053,-39,16,-23
428159,-97656,-4687,1562,2048,-39,16,-23
428161,-97656,-4687,1562,2045,-39,16,-22
428163,-97656,-4687,1562,2057,-38,16,-22
428165,-96875,-6250,2343,2049,-38,16,-22
428167,-96875,-6250,2343,2051,-38,16,-22
428169,-96875,-6250,2343,2052,-38,16,-22
428171,-96875,-6250,2343,2053,-38,16,-22
428173,-96875,-6250,2343,2051,-38,16,-22
428175,-96875,-5468,2343,2049,-37,16,-22
428177,-96875,-5468,2343,2051,-37,16,-22
428179,-96875,-5468,2343,2057,-37,16,-22
428182,-96875,-5468,2343,2059,-36,16,-22
428184,-96875,-5468,2343,2048,-36,16,-22
428185,-96875,-5468,1562,2052,-36,16,-22
428187,-96875,-5468,1562,2056,-36,16,-22
428189,-96875,-5468,1562,2049,-36,16,-22
428191,-96875,-5468,1562,2056,-35,16,-22
428193,-96875,-5468,1562,2045,-35,16,-22
428195,-97656,-4687,781,2042,-35,16,-22
428197,-97656,-4687,781,2047,-35,16,-22
428199,-97656,-4687,781,2045,-35,15,-22
428201,-97656,-4687,781,2046,-35,15,-22
428203,-97656,-4687,781,2061,-34,16,-22
428205,-96875,-5468,781,2043,-34,16,-22
428207,-96875,-5468,781,2051,-34,15,-22
428209,-96875,-5468,781,2057,-34,15,-22
428211,-96875,-5468,781,2053,-34,15,-22
428213,-96875,-5468,781,2051,-34,15,-22
428215,-96093,-5468,1562,2049,-34,15,-21
428217,-96093,-5468,1562,2056,-34,15,-21
428219,-96093,-5468,1562,2058,-34,15,-21
428221,-96093,-5468,1562,2046,-34,15,-21
428223,-96093,-5468,1562,2059,-33,15,-21
428225,-97656,-5468,781,2049,-33,15,-21
428227,-97656,-5468,781,2045,-33,15,-21
428229,-97656,-5468,781,2046,-33,15,-21
428231,-97656,-5468,781,2051,-33,15,-21
428233,-97656,-5468,781,2049,-32,15,-21
428235,-98437,-6250,781,2052,-32,15,-21
428237,-98437,-6250,781,2061,-32,15,-21
428239,-98437,-6250,781,2056,-32,15,-21
428241,-98437,-6250,781,2040,-32,15,-21
428243,-98437,-6250,781,2053,-31,15,-21
428245,-97656,-7031,0,2059,-31,15,-21
428247,-97656,-7031,0,2052,-31,15,-21
428250,-97656,-7031,0,2051,-31,15,-21
428251,-97656,-7031,0,2048,-30,15,-21
428253,-97656,-7031,0,2054,-30,15,-21
428255,-98437,-6250,781,2047,-30,16,-21
428257,-98437,-6250,781,2049,-30,16,-21
428259,-98437,-6250,781,2061,-30,16,-21
428261,-98437,-6250,781,2066,-30,16,-21
428263,-98437,-6250,781,2048,-29,16,-21
428265,-97656,-5468,781,2053,-29,16,-21
428267,-97656,-5468,781,2058,-29,16,-21
428269,-97656,-5468,781,2058,-29,16,-21
428271,-97656,-5468,781,2045,-29,16,-21
428273,-97656,-5468,781,2051,-29,16,-21
428275,-96875,-5468,0,2052,-29,16,-21
428277,-96875,-5468,0,2051,-29,16,-21
428279,-96875,-5468,0,2049,-29,16,-21
428281,-96875,-5468,0,2046,-29,16,-21
428283,-96875,-5468,0,2042,-28,17,-21
428285,-97656,-4687,-781,2061,-28,16,-21
428287,-97656,-4687,-781,2061,-28,16,-21
428289,-97656,-4687,-781,2043,-28,17,-21
428291,-97656,-4687,-781,2054,-28,17,-21
428293,-97656,-4687,-781,2059,-27,16,-21
428295,-98437,-5468,0,2056,-27,16,-21
428297,-98437,-5468,0,2051,-27,17,-21
428299,-98437,-5468,0,2045,-27,17,-21
428301,-98437,-5468,0,2053,-27,17,-21
428303,-98437,-5468,0,2046,-27,17,-21
428305,-97656,-7812,-781,2046,-27,17,-21
428307,-97656,-7812,-781,2062,-27,17,-21
428309,-97656,-7812,-781,2056,-26,17,-21
428311,-97656,-7812,-781,2057,-26,17,-21
428313,-97656,-7812,-781,2061,-26,17,-21
428315,-97656,-6250,0,2051,-26,17,-21
428318,-97656,-6250,0,2051,-26,17,-21
428319,-97656,-6250,0,2051,-26,17,-21
428321,-97656,-6250,0,2059,-26,17,-21
428323,-97656,-6250,0,2048,-26,17,-21
428325,-97656,-6250,0,2057,-26,17,-21
428327,-98437,-5468,0,2056,-26,17,-21
428329,-98437,-5468,0,2043,-25,17,-21
428331,-98437,-5468,0,2051,-25,17,-21
428333,-98437,-5468,0,2049,-25,17,-21
428335,-98437,-5468,0,2053,-25,17,-21
428337,-98437,-7031,-781,2054,-25,17,-21
428339,-98437,-7031,-781,2058,-25,17,-21
428341,-98437,-7031,-781,2046,-25,17,-21
428343,-98437,-7031,-781,2061,-25,17,-21
428345,-98437,-7031,-781,2061,-25,17,-21
428347,-97656,-6250,0,2053,-25,17,-21
428349,-97656,-6250,0,2047,-25,17,-21
428351,-97656,-6250,0,2056,-25,17,-21
428353,-97656,-6250,0,2051,-25,16,-21
428355,-97656,-6250,0,2049,-25,17,-20
428357,-98437,-7031,0,2056,-25,17,-20
428359,-98437,-7031,0,2062,-25,17,-21
428361,-98437,-7031,0,2052,-25,17,-21
428363,-98437,-7031,0,2057,-25,17,-21
428365,-98437,-7031,0,2056,-25,17,-21
428367,-98437,-7031,-781,2051,-25,17,-21
428369,-98437,-7031,-781,2056,-25,17,-21
428371,-98437,-7031,-781,2051,-25,17,-21
428373,-98437,-7031,-781,2056,-25,17,-21
428375,-98437,-7031,-781,2054,-25,17,-21
428377,-100000,-5468,-1562,2049,-25,17,-21
428379,-100000,-5468,-1562,2051,-25,17,-21
428381,-100000,-5468,-1562,2052,-25,17,-21
428383,-100000,-5468,-1562,2057,-25,17,-21
428385,-100000,-5468,-1562,2047,-25,17,-21
428387,-98437,-5468,-1562,2043,-25,17,-21
428389,-98437,-5468,-1562,2053,-25,17,-21
428391,-98437,-5468,-1562,2049,-25,17,-21
428393,-98437,-5468,-1562,2062,-25,18,-21
428407,-100000,-6250,-3125,2058,-25,18,-21
428409,-100000,-6250,-3125,2049,-25,18,-21
428410,-100000,-6250,-3125,2054,-25,18,-21
428412,-100000,-6250,-3125,2051,-26,18,-21
428413,-100000,-6250,-3125,2046,-26,18,-22
428415,-100000,-6250,-3125,2056,-26,18,-22
428416,-100000,-6250,-3125,2049,-26,18,-22
428418,-100000,-6250,-3125,2043,-26,18,-22
428419,-100000,-6250,-3125,2059,-26,18,-21
428421,-100000,-6250,-3125,2051,-26,18,-21
428422,-100000,-6250,-3125,2057,-26,18,-21
428424,-100000,-6250,-3125,2053,-26,18,-21
428425,-100000,-6250,-3125,2051,-26,18,-22
428427,-100000,-6250,-2343,2061,-26,18,-22
428428,-100000,-6250,-2343,2046,-26,18,-22
428430,-100000,-6250,-2343,2061,-27,18,-22
428431,-100000,-6250,-2343,2049,-27,18,-22
428433,-100000,-6250,-2343,2053,-27,18,-22
428434,-100000,-6250,-2343,2066,-27,18,-22
428436,-100000,-6250,-2343,2061,-27,19,-22
428437,-100000,-6250,-2343,2043,-27,19,-21
428439,-100000,-6250,-2343,2049,-27,19,-21
428440,-100000,-6250,-2343,2056,-27,19,-21
428442,-100000,-6250,-2343,2051,-27,18,-21
428443,-100000,-6250,-2343,2051,-27,18,-21
428445,-100000,-6250,-2343,2056,-27,18,-21
428447,-101562,-6250,-3125,2042,-27,18,-22
428449,-101562,-6250,-3125,2051,-28,18,-22
428451,-101562,-6250,-3125,2052,-28,18,-22
428453,-101562,-6250,-3125,2049,-28,18,-21
428455,-101562,-6250,-3125,2046,-28,19,-21
428457,-101562,-4687,-3125,2048,-28,19,-22
428459,-101562,-4687,-3125,2053,-28,19,-22
428461,-101562,-4687,-3125,2049,-28,19,-22
428463,-101562,-4687,-3125,2046,-29,18,-21
428465,-101562,-4687,-3125,2064,-29,18,-21
428467,-100781,-6250,-3125,2063,-29,18,-21
428469,-100781,-6250,-3125,2047,-29,18,-22
428471,-100781,-6250,-3125,2061,-29,19,-22
428473,-100781,-6250,-3125,2053,-29,19,-22
428475,-100781,-6250,-3125,2053,-29,19,-22
428477,-100781,-7031,-3125,2051,-29,19,-22
428479,-100781,-7031,-3125,2049,-30,19,-22
428481,-100781,-7031,-3125,2048,-30,19,-22
428483,-100781,-7031,-3125,2056,-30,19,-22
428485,-100781,-7031,-3125,2043,-30,19,-22
428487,-100781,-6250,-3125,2048,-31,19,-22
428489,-100781,-6250,-3125,2054,-31,19,-22
428491,-100781,-6250,-3125,2054,-31,19,-22
428493,-100781,-6250,-3125,2054,-31,19,-22
428495,-100781,-6250,-3125,2048,-31,19,-23
428497,-100781,-6250,-3125,2046,-31,19,-23
428499,-100781,-7031,-3125,2053,-32,19,-23
428501,-100781,-7031,-3125,2051,-32,19,-23
428503,-100781,-7031,-3125,2045,-32,19,-23
428505,-100781,-7031,-3125,2054,-32,20,-23
428507,-100781,-7031,-3125,2048,-32,20,-23
428509,-100781,-7031,-3125,2048,-33,20,-23
428511,-100781,-7031,-3125,2049,-33,20,-23
428513,-100781,-7031,-3125,2053,-33,20,-23
428515,-100781,-7031,-3125,2061,-33,20,-23
428517,-100781,-7031,-3125,2057,-33,20,-24
428519,-101562,-5468,-3906,2046,-34,20,-24
428521,-101562,-5468,-3906,2047,-34,20,-24
428523,-101562,-5468,-3906,2051,-34,20,-24
428525,-101562,-5468,-3906,2061,-34,21,-24
428527,-101562,-5468,-3906,2049,-34,21,-24
428529,-102343,-6250,-3125,2046,-35,21,-24
428559,-102343,-6250,-4687,2061,-38,22,-24
428560,-102343,-6250,-4687,2051,-38,22,-24
428562,-102343,-6250,-4687,2066,-38,22,-24
428563,-102343,-6250,-4687,2047,-39,22,-24
428565,-102343,-6250,-4687,2052,-39,22,-24
428566,-102343,-6250,-4687,2054,-39,22,-24
428568,-102343,-6250,-4687,2057,-39,22,-24
428569,-101562,-5468,-5468,2059,-39,22,-25
428571,-101562,-5468,-5468,2053,-40,22,-25
428572,-101562,-5468,-5468,2052,-40,22,-25
428574,-101562,-5468,-5468,2056,-40,22,-25
428575,-101562,-5468,-5468,2047,-40,22,-25
428577,-101562,-5468,-5468,2046,-40,22,-25
428578,-102343,-4687,-4687,2043,-41,22,-25
428580,-102343,-4687,-4687,2054,-41,22,-25
428581,-102343,-4687,-4687,2058,-41,22,-25
428583,-102343,-4687,-4687,2046,-41,22,-25
428584,-102343,-4687,-4687,2045,-41,22,-25
428586,-102343,-4687,-4687,2045,-41,22,-25
428587,-102343,-4687,-4687,2058,-42,22,-25
428589,-101562,-4687,-4687,2040,-42,22,-25
428590,-101562,-4687,-4687,2059,-42,22,-25
428592,-101562,-4687,-4687,2052,-42,22,-25
428593,-101562,-4687,-4687,2056,-43,22,-25
428595,-101562,-4687,-4687,2048,-43,22,-25
428596,-101562,-4687,-4687,2048,-43,22,-25
428598,-101562,-4687,-4687,2049,-43,22,-25
428599,-101562,-6250,-4687,2052,-44,22,-25
428601,-101562,-6250,-4687,2053,-44,22,-25
428602,-101562,-6250,-4687,2047,-44,22,-25
428604,-101562,-6250,-4687,2045,-44,22,-25
428605,-101562,-6250,-4687,2046,-44,22,-25
428607,-101562,-6250,-4687,2048,-45,23,-25
428608,-101562,-6250,-4687,2047,-45,23,-25
428612,-102343,-5468,-3906,2047,-45,22,-25
428613,-102343,-5468,-3906,2054,-45,22,-25
428615,-102343,-5468,-3906,2063,-46,22,-25
428616,-102343,-5468,-3906,2048,-46,22,-25
428618,-102343,-5468,-3906,2048,-46,22,-25
428619,-101562,-6250,-3906,2043,-46,22,-25
428621,-101562,-6250,-3906,2061,-46,22,-25
428622,-101562,-6250,-3906,2054,-46,22,-25
428624,-101562,-6250,-3906,2049,-47,23,-25
428625,-101562,-6250,-3906,2053,-47,23,-25
428627,-101562,-6250,-3906,2045,-47,23,-24
428628,-101562,-6250,-3906,2059,-47,23,-24
428630,-102343,-5468,-4687,2051,-48,23,-24
428631,-102343,-5468,-4687,2048,-48,23,-24
428633,-102343,-5468,-4687,2056,-48,23,-24
428634,-102343,-5468,-4687,2051,-48,23,-25
428636,-102343,-5468,-4687,2048,-48,23,-25
428637,-102343,-5468,-4687,2043,-49,23,-25
428639,-103906,-5468,-3906,2057,-49,23,-25
428640,-103906,-5468,-3906,2048,-49,23,-25
428642,-103906,-5468,-3906,2052,-49,24,-25
428643,-103906,-5468,-3906,2048,-50,24,-25
428645,-103906,-5468,-3906,2052,-50,24,-25
428646,-103906,-5468,-3906,2054,-50,24,-25
428648,-103906,-5468,-3906,2046,-50,24,-25
428649,-103125,-5468,-3906,2045,-50,24,-25
428651,-103125,-5468,-3906,2057,-51,24,-25
428653,-103125,-5468,-3906,2058,-51,24,-25
428655,-103125,-5468,-3906,2053,-51,25,-25
428657,-103125,-5468,-3906,2051,-51,25,-25
428659,-102343,-6250,-3125,2042,-51,25,-25
428661,-102343,-6250,-3125,2046,-52,25,-25
428663,-102343,-6250,-3125,2053,-52,25,-25
428665,-102343,-6250,-3125,2053,-53,25,-26
428685,-102343,-6250,-3125,2048,-55,25,-26
428686,-102343,-6250,-3125,2049,-55,25,-26
428688,-102343,-6250,-3125,2061,-55,25,-26
428689,-102343,-6250,-3125,2058,-55,25,-26
428691,-103125,-5468,-2343,2051,-56,25,-26
428692,-103125,-5468,-2343,2046,-56,25,-26
428694,-103125,-5468,-2343,2049,-56,25,-27
428695,-103125,-5468,-2343,2058,-56,25,-27
428697,-103125,-5468,-2343,2048,-56,25,-27
428698,-103125,-5468,-2343,2045,-56,25,-27
428700,-102343,-6250,-3125,2053,-57,25,-27
428701,-102343,-6250,-3125,2051,-57,25,-27
428703,-102343,-6250,-3125,2038,-57,25,-27
428704,-102343,-6250,-3125,2051,-57,25,-27
428706,-102343,-6250,-3125,2047,-58,25,-27
428707,-102343,-6250,-3125,2047,-58,25,-27
428709,-102343,-6250,-3125,2051,-58,25,-27
428710,-102343,-5468,-2343,2041,-58,25,-27
428712,-102343,-5468,-2343,2067,-58,25,-26
428713,-102343,-5468,-2343,2052,-58,25,-26
428715,-102343,-5468,-2343,2063,-58,24,-26
428716,-102343,-5468,-2343,2046,-59,24,-26
428718,-102343,-5468,-2343,2051,-59,24,-26
428719,-102343,-5468,-2343,2052,-59,24,-26
428721,-102343,-4687,-3125,2051,-59,24,-26
428722,-102343,-4687,-3125,2046,-60,24,-27
428724,-102343,-4687,-3125,2057,-60,24,-27
428725,-102343,-4687,-3125,2062,-60,24,-27
428727,-102343,-4687,-3125,2054,-60,24,-27
428728,-102343,-4687,-3125,2047,-60,24,-27
428730,-102343,-5468,-2343,2051,-61,24,-27
428731,-102343,-5468,-2343,2057,-61,24,-27
428733,-102343,-5468,-2343,2052,-61,24,-27
428734,-102343,-5468,-2343,2057,-61,24,-27
428737,-102343,-5468,-2343,2048,-61,24,-27
428739,-102343,-5468,-2343,2051,-61,23,-27
428740,-103125,-6250,-3125,2058,-61,23,-27
428742,-103125,-6250,-3125,2048,-61,23,-27
428743,-103125,-6250,-3125,2051,-62,23,-27
428745,-103125,-6250,-3125,2056,-62,23,-27
428747,-103125,-6250,-3125,2053,-62,23,-27
428749,-103125,-6250,-3125,2051,-62,24,-27
428751,-101562,-7031,-2343,2064,-63,24,-27
428753,-101562,-7031,-2343,2051,-63,24,-27
428755,-101562,-7031,-2343,2051,-63,24,-27
428757,-101562,-7031,-2343,2061,-63,24,-27
428759,-101562,-7031,-2343,2048,-63,24,-27
428761,-101562,-7812,-1562,2048,-63,25,-27
428763,-101562,-7812,-1562,2054,-64,25,-27
428765,-101562,-7812,-1562,2058,-64,25,-27
428767,-101562,-7812,-1562,2048,-64,25,-27
428769,-101562,-7812,-1562,2059,-64,25,-27
428771,-103125,-5468,-1562,2057,-64,25,-27
428773,-103125,-5468,-1562,2056,-64,25,-26
428775,-103125,-5468,-1562,2053,-64,26,-27
428777,-103125,-5468,-1562,2061,-65,26,-27
428779,-103125,-5468,-1562,2043,-65,26,-27
428781,-102343,-6250,-2343,2049,-65,26,-27
428783,-102343,-6250,-2343,2053,-65,26,-27
428785,-102343,-6250,-2343,2047,-65,26,-27
428787,-102343,-6250,-2343,2051,-65,26,-27
428789,-102343,-6250,-2343,2056,-66,27,-27
428791,-102343,-5468,-2343,2057,-66,27,-27
428793,-102343,-5468,-2343,2058,-66,27,-27
428795,-102343,-5468,-2343,2048,-67,27,-27
428797,-102343,-5468,-2343,2058,-67,27,-27
428799,-102343,-5468,-2343,2061,-67,28,-27
428801,-102343,-5468,-1562,2061,-67,28,-27
428803,-102343,-5468,-1562,2056,-67,28,-27
428805,-102343,-5468,-1562,2051,-67,28,-27
428807,-102343,-5468,-1562,2046,-68,29,-27
428809,-102343,-5468,-1562,2061,-68,29,-27
428811,-102343,-6250,-1562,2053,-68,29,-27
428813,-102343,-6250,-1562,2061,-68,29,-27
428815,-102343,-6250,-1562,2046,-68,29,-27
428817,-102343,-6250,-1562,2056,-68,29,-27
428819,-102343,-6250,-1562,2051,-68,29,-27
428821,-102343,-5468,-781,2052,-68,29,-27
428823,-102343,-5468,-781,2062,-68,29,-27
428825,-102343,-5468,-781,2051,-69,29,-27
428827,-102343,-5468,-781,2066,-69,29,-27
428829,-102343,-5468,-781,2048,-69,29,-27
428831,-100781,-6250,-781,2046,-69,30,-27
428833,-100781,-6250,-781,2054,-69,30,-27
428835,-100781,-6250,-781,2049,-69,30,-27
428837,-100781,-6250,-781,2058,-69,30,-27
428839,-100781,-6250,-781,2049,-69,30,-27
428841,-101562,-6250,-1562,2049,-69,30,-27
428843,-101562,-6250,-1562,2052,-70,30,-27
428845,-101562,-6250,-1562,2062,-70,30,-27
428847,-101562,-6250,-1562,2062,-70,30,-27
428849,-101562,-6250,-1562,2045,-70,30,-27
428851,-101562,-6250,-1562,2054,-70,30,-27
428853,-100781,-6250,781,2049,-70,30,-27
428855,-100781,-6250,781,2054,-70,30,-27
428857,-100781,-6250,781,2057,-70,30,-26
428859,-100781,-6250,781,2047,-70,30,-26
428861,-100781,-6250,781,2061,-70,30,-26
428863,-100781,-7031,0,2049,-70,30,-26
428866,-100781,-7031,0,2053,-70,30,-26
428867,-100781,-7031,0,2061,-70,30,-26
428869,-100781,-7031,0,2057,-70,30,-26
428871,-100781,-7031,0,2051,-70,30,-26
428873,-100781,-7031,0,2049,-70,30,-26
428875,-100781,-7031,0,2053,-70,30,-26
428877,-100781,-7031,0,2052,-70,30,-26
428879,-100781,-7031,0,2048,-70,30,-26
428881,-100781,-7031,0,2046,-70,30,-26
428883,-100781,-6250,1562,2049,-70,30,-26
428885,-100781,-6250,1562,2059,-71,31,-26
428887,-100781,-6250,1562,2061,-71,31,-26
428889,-100781,-6250,1562,2057,-71,31,-26
428891,-100781,-6250,1562,2051,-71,31,-27
428893,-100781,-7031,781,2058,-71,31,-27
428895,-100781,-7031,781,2051,-71,31,-27
428897,-100781,-7031,781,2057,-71,31,-27
428899,-100781,-7031,781,2058,-71,32,-27
428901,-100781,-7031,781,2049,-71,32,-27
428903,-100000,-6250,781,2062,-71,32,-27
428905,-100000,-6250,781,2051,-71,32,-27
428907,-100000,-6250,781,2045,-71,32,-27
428909,-100000,-6250,781,2049,-71,33,-27
428911,-100000,-6250,781,2059,-71,33,-27
428913,-100000,-6250,-1562,2051,-71,33,-27
428915,-100000,-6250,-1562,2047,-71,33,-27
428917,-100000,-6250,-1562,2062,-71,33,-27
428919,-100000,-6250,-1562,2041,-71,34,-27
428921,-100000,-6250,-1562,2047,-71,34,-27
428923,-100000,-6250,0,2051,-71,34,-27
428925,-100000,-6250,0,2049,-71,34,-28
428927,-100000,-6250,0,2058,-71,34,-28
428929,-100000,-6250,0,2045,-71,34,-28
428931,-100000,-6250,0,2048,-71,34,-28
428933,-100781,-6250,781,2057,-71,35,-28
428935,-100781,-6250,781,2054,-71,35,-28
428937,-100781,-6250,781,2059,-71,35,-28
428939,-100781,-6250,781,2043,-71,35,-28
428941,-100781,-6250,781,2056,-71,35,-28
428943,-100000,-6250,0,2049,-71,35,-28
428945,-100000,-6250,0,2049,-70,35,-28
428947,-100000,-6250,0,2063,-70,35,-28
428949,-100000,-6250,0,2057,-70,35,-28
428951,-100000,-6250,0,2061,-70,35,-28
428953,-100000,-6250,1562,2057,-70,35,-28
428955,-100000,-6250,1562,2049,-70,35,-28
428957,-100000,-6250,1562,2064,-70,35,-28
428959,-100000,-6250,1562,2042,-70,35,-28
428961,-100000,-6250,1562,2051,-70,35,-28
428963,-99218,-7031,781,2042,-70,35,-28
428965,-99218,-7031,781,2061,-70,35,-28
428967,-99218,-7031,781,2052,-70,35,-28
428969,-99218,-7031,781,2053,-70,35,-28
428971,-99218,-7031,781,2051,-70,36,-28
428973,-100000,-5468,0,2046,-70,36,-28
428975,-100000,-5468,0,2048,-70,36,-28
428977,-100000,-5468,0,2051,-70,36,-28
428979,-100000,-5468,0,2047,-70,36,-28
428981,-100000,-5468,0,2056,-69,36,-28
428983,-100000,-5468,781,2049,-70,36,-28
428985,-100000,-5468,781,2048,-69,36,-28
428987,-100000,-5468,781,2051,-69,36,-28
428989,-100000,-5468,781,2056,-69,36,-28
428991,-100000,-5468,781,2048,-69,36,-28
428993,-100000,-6250,0,2048,-68,36,-28
428995,-100000,-6250,0,2054,-68,36,-28
428997,-100000,-6250,0,2054,-68,36,-28
428999,-100000,-6250,0,2049,-68,36,-28
429001,-100000,-6250,0,2043,-68,36,-28
429003,-100000,-6250,0,2057,-68,36,-28
429005,-100000,-6250,0,2056,-68,36,-28
429007,-100000,-6250,0,2053,-68,36,-27
429022,-100000,-7031,781,2030,-67,38,-28
429024,-100000,-5468,-781,2043,-67,38,-28
429025,-100000,-5468,-781,2058,-67,38,-28
429027,-100000,-5468,-781,2043,-67,38,-28
429028,-100000,-5468,-781,2053,-66,38,-27
429030,-100000,-5468,-781,2057,-66,38,-27
429031,-100000,-5468,-781,2046,-66,38,-28
429033,-100000,-5468,-781,2043,-66,38,-28
429034,-100781,-5468,781,2052,-66,38,-27
429036,-100781,-5468,781,2046,-66,38,-27
429037,-100781,-5468,781,2052,-66,39,-27
429039,-100781,-5468,781,2051,-66,39,-27
429040,-100781,-5468,781,2053,-66,39,-27
429042,-100781,-5468,781,2049,-65,39,-28
429043,-100781,-5468,781,2056,-65,39,-28
429045,-100000,-5468,1562,2049,-65,39,-28
429046,-100000,-5468,1562,2061,-65,39,-28
429048,-100000,-5468,1562,2053,-65,39,-28
429049,-100000,-5468,1562,2048,-64,39,-28
429051,-100000,-5468,1562,2048,-64,39,-28
429052,-100000,-5468,1562,2047,-64,40,-28
429054,-100000,-7031,-781,2056,-64,40,-28
429055,-100000,-7031,-781,2052,-64,40,-28
429057,-100000,-7031,-781,2058,-64,40,-28
429058,-100000,-7031,-781,2051,-64,40,-28
429060,-100000,-7031,-781,2046,-64,40,-28
429061,-100000,-7031,-781,2045,-64,40,-28
429063,-100000,-7031,-781,2045,-64,40,-28
429065,-100000,-6250,2343,2046,-64,40,-28
429067,-100000,-6250,2343,2061,-64,40,-28
429069,-100000,-6250,2343,2051,-64,40,-28
429071,-100000,-6250,2343,2054,-64,40,-28
429073,-100000,-6250,2343,2054,-64,40,-28
429075,-100000,-5468,-1562,2049,-64,40,-28
429077,-100000,-5468,-1562,2049,-64,40,-28
429079,-100000,-5468,-1562,2058,-63,40,-28
429081,-100000,-5468,-1562,2048,-63,40,-27
429083,-100000,-5468,-1562,2052,-63,40,-27
429085,-100000,-4687,781,2047,-63,40,-27
429087,-100000,-4687,781,2042,-63,40,-27
429089,-100000,-4687,781,2049,-63,40,-28
429091,-100000,-4687,781,2051,-63,41,-28
429093,-100000,-4687,781,2051,-63,41,-28
429095,-100000,-5468,-1562,2043,-63,41,-28
429097,-100000,-5468,-1562,2048,-63,40,-27
429099,-100000,-5468,-1562,2057,-63,40,-27
429101,-100000,-5468,-1562,2048,-63,40,-28
429103,-100000,-5468,-1562,2051,-63,40,-27
429105,-100000,-4687,0,2048,-63,40,-27
429107,-100000,-4687,0,2048,-62,40,-27
429109,-100000,-4687,0,2056,-62,40,-27
429111,-100000,-4687,0,2053,-62,40,-27
429113,-100000,-4687,0,2052,-63,40,-27
429115,-100781,-4687,-781,2043,-62,40,-27
429117,-100781,-4687,-781,2051,-62,40,-27
429119,-100781,-4687,-781,2051,-62,40,-27
429121,-100781,-4687,-781,2057,-62,40,-27
429123,-100781,-4687,-781,2054,-62,40,-28
429125,-101562,-4687,0,2051,-62,40,-28
429127,-101562,-4687,0,2053,-62,39,-28
429129,-101562,-4687,0,2056,-62,39,-28
429131,-101562,-4687,0,2047,-62,40,-28
429133,-101562,-4687,0,2045,-62,39,-27
429135,-100781,-5468,-781,2051,-62,39,-27
429137,-100781,-5468,-781,2051,-62,39,-27
429139,-100781,-5468,-781,2046,-62,39,-27
429141,-100781,-5468,-781,2051,-62,39,-27
429143,-100781,-5468,-781,2054,-62,39,-28
429145,-101562,-3906,-1562,2053,-62,39,-28
429147,-101562,-3906,-1562,2043,-62,39,-28
429149,-101562,-3906,-1562,2046,-62,40,-28
429151,-101562,-3906,-1562,2049,-62,40,-28
429153,-101562,-3906,-1562,2061,-62,40,-27
429155,-101562,-3906,-2343,2051,-62,40,-27
429157,-101562,-3906,-2343,2041,-62,40,-27
429159,-101562,-3906,-2343,2051,-62,40,-27
429161,-101562,-3906,-2343,2051,-62,40,-27
429163,-101562,-3906,-2343,2047,-62,40,-27
429165,-100781,-4687,-2343,2051,-62,40,-27
429167,-100781,-4687,-2343,2048,-62,39,-27
429169,-100781,-4687,-2343,2049,-62,39,-27
429171,-100781,-4687,-2343,2045,-62,39,-27
429173,-100781,-4687,-2343,2046,-62,39,-27
429175,-102343,-3125,-2343,2061,-62,39,-27
429177,-102343,-3125,-2343,2051,-62,39,-27
429179,-102343,-3125,-2343,2048,-62,39,-27
429181,-102343,-3125,-2343,2051,-62,39,-27
429183,-102343,-3125,-2343,2052,-62,39,-27
429185,-102343,-3906,-2343,2053,-61,39,-27
429187,-102343,-3906,-2343,2051,-62,39,-26
429189,-102343,-3906,-2343,2045,-62,39,-27
429191,-102343,-3906,-2343,2048,-62,39,-27
429193,-102343,-3906,-2343,2056,-62,39,-27
429195,-102343,-3906,-2343,2041,-62,39,-27
429197,-102343,-3906,-2343,2051,-62,39,-27
429199,-102343,-3906,-2343,2049,-62,39,-27
429201,-102343,-3906,-2343,2049,-62,38,-27
429203,-102343,-3906,-2343,2048,-63,38,-27
429220,-102343,-3906,-2343,2057,-63,37,-27
429222,-102343,-3906,-2343,2042,-64,37,-27
429223,-102343,-3906,-2343,2042,-64,37,-26
429225,-102343,-3906,-2343,2043,-64,37,-26
429226,-102343,-3906,-1562,2051,-64,37,-26
429228,-102343,-3906,-1562,2046,-64,37,-26
429229,-102343,-3906,-1562,2046,-64,37,-26
429231,-102343,-3906,-1562,2047,-64,37,-26
429232,-102343,-3906,-1562,2048,-64,36,-26
429234,-102343,-3906,-1562,2051,-65,36,-26
429235,-102343,-3906,-1562,2057,-65,36,-26
429237,-102343,-3125,-3125,2061,-65,36,-26
429238,-102343,-3125,-3125,2043,-65,36,-26
429240,-102343,-3125,-3125,2051,-65,35,-26
429241,-102343,-3125,-3125,2053,-65,35,-26
429243,-102343,-3125,-3125,2057,-65,35,-26
429244,-102343,-3125,-3125,2057,-65,35,-26
429246,-103125,-3906,-1562,2048,-65,35,-26
429247,-103125,-3906,-1562,2042,-65,35,-26
429249,-103125,-3906,-1562,2056,-65,35,-26
429250,-103125,-3906,-1562,2045,-65,35,-26
429252,-103125,-3906,-1562,2058,-65,35,-26
429253,-103125,-3906,-1562,2054,-65,35,-26
429255,-103125,-3906,-1562,2048,-65,34,-26
429256,-102343,-3906,-3125,2042,-66,34,-26
429258,-102343,-3906,-3125,2046,-66,34,-26
429259,-102343,-3906,-3125,2045,-66,34,-26
429261,-102343,-3906,-3125,2042,-66,34,-26
429262,-102343,-3906,-3125,2049,-66,33,-26
429264,-102343,-3906,-3125,2041,-66,33,-25
429265,-102343,-3906,-3125,2054,-66,33,-25
429267,-102343,-3906,-1562,2056,-66,33,-25
429269,-102343,-3906,-1562,2048,-66,33,-25
429272,-102343,-3906,-1562,2056,-66,32,-25
429273,-102343,-3906,-1562,2051,-67,32,-25
429275,-102343,-3906,-1562,2061,-67,32,-25
429277,-102343,-3906,-2343,2045,-67,32,-25
429279,-102343,-3906,-2343,2051,-67,32,-25
429281,-102343,-3906,-2343,2057,-67,32,-25
429283,-102343,-3906,-2343,2048,-67,31,-26
429285,-102343,-3906,-2343,2053,-68,31,-25
429287,-103125,-4687,-2343,2046,-68,31,-25
429289,-103125,-4687,-2343,2046,-68,31,-25
429291,-103125,-4687,-2343,2047,-68,31,-25
429293,-103125,-4687,-2343,2045,-69,31,-25
429295,-103125,-4687,-2343,2053,-69,31,-26
429297,-102343,-3906,-2343,2049,-69,31,-26
429299,-102343,-3906,-2343,2056,-69,31,-26
429301,-102343,-3906,-2343,2045,-69,31,-26
429303,-102343,-3906,-2343,2047,-70,31,-26
429305,-102343,-3906,-2343,2049,-70,31,-26
429307,-102343,-3906,-1562,2057,-70,31,-26
429309,-102343,-3906,-1562,2049,-70,31,-26
429311,-102343,-3906,-1562,2051,-70,31,-26
429313,-102343,-3906,-1562,2051,-70,31,-26
429315,-102343,-3906,-1562,2049,-70,31,-26
429317,-103125,-3906,-2343,2053,-70,31,-26
429319,-103125,-3906,-2343,2051,-71,31,-26
429321,-103125,-3906,-2343,2051,-71,30,-26
429323,-103125,-3906,-2343,2052,-71,30,-26
429325,-103125,-3906,-2343,2058,-71,30,-26
429327,-102343,-3906,-3125,2051,-71,30,-26
429329,-102343,-3906,-3125,2051,-71,30,-26
429331,-102343,-3906,-3125,2054,-72,30,-26
429333,-102343,-3906,-3125,2061,-72,30,-26
429335,-102343,-3906,-3125,2052,-72,30,-26
429338,-103125,-3125,-3125,2053,-72,30,-26
429339,-103125,-3125,-3125,2056,-72,29,-26
429341,-103125,-3125,-3125,2061,-72,29,-26
429343,-103125,-3125,-3125,2056,-73,29,-26
429345,-103125,-3125,-3125,2047,-73,29,-26
429347,-103125,-3906,-2343,2049,-73,29,-25
429349,-103125,-3906,-2343,2052,-73,28,-25
429351,-103125,-3906,-2343,2041,-73,28,-25
429353,-103125,-3906,-2343,2059,-73,28,-25
429355,-103125,-3906,-2343,2056,-73,28,-25
429357,-102343,-3906,-1562,2051,-73,28,-25
429359,-102343,-3906,-1562,2047,-74,27,-25
429361,-102343,-3906,-1562,2049,-74,27,-26
429363,-102343,-3906,-1562,2067,-74,27,-26
429365,-102343,-3906,-1562,2056,-74,27,-26
429367,-102343,-3125,-2343,2049,-74,26,-26
429369,-102343,-3125,-2343,2052,-74,26,-26
429371,-102343,-3125,-2343,2046,-74,26,-26
429373,-102343,-3125,-2343,2049,-75,26,-26
429375,-102343,-3125,-2343,2045,-75,26,-26
429377,-103125,-3125,-1562,2051,-75,25,-26
429379,-103125,-3125,-1562,2051,-75,25,-26
429381,-103125,-3125,-1562,2051,-75,25,-26
429383,-103125,-3125,-1562,2051,-75,25,-26
429385,-103125,-3125,-1562,2051,-76,25,-26
429387,-103125,-3125,-1562,2049,-76,24,-26
429389,-103125,-3125,-2343,2045,-76,24,-26
429391,-103125,-3125,-2343,2057,-76,24,-26
429393,-103125,-3125,-2343,2057,-76,23,-26
429395,-103125,-3125,-2343,2045,-76,23,-26
429397,-103125,-3125,-2343,2058,-76,23,-26
429399,-102343,-3125,-2343,2051,-76,23,-26
429401,-102343,-3125,-2343,2048,-76,23,-26
429403,-102343,-3125,-2343,2048,-76,23,-26
429406,-102343,-3125,-2343,2049,-77,23,-26
429408,-103125,-2343,-781,2049,-77,23,-26
429409,-103125,-2343,-781,2046,-77,23,-26
429411,-103125,-2343,-781,2053,-77,23,-26
429413,-103125,-2343,-781,2056,-77,23,-26
429415,-103125,-2343,-781,2062,-77,22,-26
429417,-103125,-2343,-781,2059,-78,22,-26
429419,-103125,-3125,-781,2051,-78,22,-26
429421,-103125,-3125,-781,2051,-78,22,-26
429423,-103125,-3125,-781,2046,-78,22,-26
429425,-103125,-3125,-781,2058,-78,22,-26
429427,-103125,-3125,-781,2045,-78,22,-26
429429,-102343,-3906,-1562,2057,-78,22,-26
429431,-102343,-3906,-1562,2049,-78,22,-26
429433,-102343,-3906,-1562,2052,-78,22,-26
429435,-102343,-3906,-1562,2049,-78,22,-26
429437,-102343,-3906,-1562,2054,-78,22,-26
429439,-102343,-3125,-781,2042,-78,22,-26
429441,-102343,-3125,-781,2051,-79,22,-26
429443,-102343,-3125,-781,2061,-79,22,-26
429445,-102343,-3125,-781,2047,-79,21,-26
429447,-102343,-3125,-781,2056,-79,21,-26
429449,-101562,-3125,-781,2058,-79,21,-26
429451,-101562,-3125,-781,2048,-79,21,-26
429453,-101562,-3125,-781,2041,-79,21,-26
429455,-101562,-3125,-781,2053,-79,21,-26
429457,-101562,-3125,-781,2043,-79,21,-26
429459,-101562,-2343,-2343,2059,-79,21,-26
429461,-101562,-2343,-2343,2056,-79,21,-26
429463,-101562,-2343,-2343,2056,-79,20,-26
429465,-101562,-2343,-2343,2048,-79,20,-26
429467,-101562,-2343,-2343,2053,-79,20,-26
429469,-101562,-3906,-781,2066,-80,20,-26
429471,-101562,-3906,-781,2054,-80,20,-26
429473,-101562,-3906,-781,2048,-79,20,-26
429475,-101562,-3906,-781,2056,-80,19,-26
429477,-101562,-3906,-781,2058,-80,19,-26
429479,-101562,-2343,-781,2053,-80,20,-26
429481,-101562,-2343,-781,2046,-80,20,-26
429483,-101562,-2343,-781,2041,-80,20,-26
429485,-101562,-2343,-781,2048,-80,19,-26
429487,-101562,-2343,-781,2054,-80,19,-26
429489,-100781,-3906,-781,2045,-80,19,-26
429491,-100781,-3906,-781,2046,-80,19,-26
429493,-100781,-3906,-781,2051,-80,19,-26
429495,-100781,-3906,-781,2052,-80,19,-26
429497,-100781,-3906,-781,2051,-80,18,-26
429499,-100781,-3906,0,2061,-80,18,-26
429501,-100781,-3906,0,2051,-80,18,-26
429503,-100781,-3906,0,2061,-80,18,-26
429505,-100781,-3906,0,2059,-80,18,-26
429507,-100781,-3906,0,2049,-80,18,-26
429509,-100781,-4687,-781,2061,-80,17,-26
429511,-100781,-4687,-781,2061,-81,17,-26
429513,-100781,-4687,-781,2049,-81,17,-26
429515,-100781,-4687,-781,2056,-81,17,-26
429517,-100781,-4687,-781,2058,-81,17,-26
429519,-100781,-3906,0,2046,-81,17,-26
429521,-100781,-3906,0,2061,-80,16,-26
429523,-100781,-3906,0,2063,-80,16,-26
429525,-100781,-3906,0,2051,-80,16,-26
429527,-100781,-3906,0,2051,-80,16,-26
429529,-100000,-3906,781,2067,-80,16,-26
429531,-100000,-3906,781,2057,-80,15,-26
429533,-100000,-3906,781,2048,-80,15,-26
429535,-100000,-3906,781,2059,-80,15,-27
429537,-100000,-3906,781,2052,-80,15,-27
429539,-100000,-3906,781,2059,-80,15,-26
429541,-100000,-3906,781,2043,-80,15,-26
429543,-100000,-3906,781,2047,-80,15,-26
429545,-100000,-3906,781,2056,-80,15,-26
429547,-100000,-3906,781,2047,-80,15,-26
429549,-100781,-3906,781,2052,-80,15,-26
429551,-100781,-3906,781,2054,-80,15,-26
429553,-100781,-3906,781,2051,-80,15,-26
429555,-100781,-3906,781,2056,-80,15,-26
429557,-100781,-3906,781,2059,-80,15,-25
429559,-100781,-3906,781,2046,-80,15,-25
429561,-100781,-3906,0,2052,-80,15,-25
429578,-100000,-5468,781,2048,-80,15,-26
429580,-99218,-4687,1562,2048,-80,15,-26
429581,-99218,-4687,1562,2054,-80,15,-26
429583,-99218,-4687,1562,2051,-79,15,-26
429584,-99218,-4687,1562,2052,-79,15,-26
429586,-99218,-4687,1562,2048,-79,14,-26
429587,-99218,-4687,1562,2053,-79,14,-26
429589,-99218,-4687,1562,2040,-79,14,-26
429590,-98437,-4687,781,2051,-79,15,-26
429592,-98437,-4687,781,2048,-79,15,-26
429593,-98437,-4687,781,2051,-79,15,-26
429595,-98437,-4687,781,2059,-79,15,-26
429596,-98437,-4687,781,2046,-78,14,-26
429598,-98437,-4687,781,2047,-78,14,-26
429599,-98437,-4687,781,2054,-78,14,-26
429601,-100000,-3906,2343,2045,-78,14,-26
429602,-100000,-3906,2343,2046,-78,14,-26
429604,-100000,-3906,2343,2054,-77,14,-26
429605,-100000,-3906,2343,2049,-77,14,-26
429607,-100000,-3906,2343,2051,-77,14,-26
429608,-100000,-3906,2343,2041,-77,14,-26
429610,-98437,-3906,2343,2047,-77,14,-26
429611,-98437,-3906,2343,2061,-77,14,-26
429613,-98437,-3906,2343,2058,-77,14,-26
429614,-98437,-3906,2343,2052,-77,14,-26
429616,-98437,-3906,2343,2058,-77,14,-26
429617,-98437,-3906,2343,2056,-77,14,-26
429619,-98437,-3906,2343,2048,-77,14,-26
429620,-99218,-4687,1562,2046,-76,14,-26
429622,-99218,-4687,1562,2054,-76,14,-26
429623,-99218,-4687,1562,2054,-76,14,-26
429625,-99218,-4687,1562,2061,-76,14,-26
429627,-99218,-4687,1562,2052,-76,13,-26
429629,-99218,-4687,1562,2043,-76,13,-26
429631,-99218,-3125,3125,2045,-75,13,-26
429633,-99218,-3125,3125,2053,-75,13,-26
429636,-99218,-3125,3125,2061,-75,13,-26
429638,-99218,-3125,3125,2052,-75,13,-26
429639,-99218,-3125,3125,2046,-75,13,-26
429641,-98437,-3906,2343,2052,-75,12,-26
429643,-98437,-3906,2343,2051,-74,12,-26
429645,-98437,-3906,2343,2047,-74,12,-26
429647,-98437,-3906,2343,2051,-74,12,-26
429649,-98437,-3906,2343,2061,-74,12,-26
429651,-97656,-4687,1562,2049,-73,12,-26
429653,-97656,-4687,1562,2042,-73,12,-26
429655,-97656,-4687,1562,2057,-73,11,-26
429657,-97656,-4687,1562,2053,-72,11,-26
429659,-97656,-4687,1562,2038,-72,11,-26
429661,-97656,-4687,2343,2047,-72,11,-26
429663,-97656,-4687,2343,2046,-72,12,-26
429665,-97656,-4687,2343,2051,-71,11,-26
429667,-97656,-4687,2343,2041,-71,11,-26
429669,-97656,-4687,2343,2059,-71,11,-26
429671,-96875,-5468,2343,2046,-70,11,-26
429673,-96875,-5468,2343,2062,-70,11,-26
429675,-96875,-5468,2343,2049,-70,12,-26
429677,-96875,-5468,2343,2046,-70,11,-26
429679,-96875,-5468,2343,2046,-70,11,-26
429681,-98437,-3906,3906,2056,-69,11,-26
429683,-98437,-3906,3906,2043,-69,11,-26
429685,-98437,-3906,3906,2047,-69,11,-26
429687,-98437,-3906,3906,2052,-68,12,-26
429689,-98437,-3906,3906,2049,-68,12,-26
429691,-96875,-5468,2343,2045,-68,12,-26
429693,-96875,-5468,2343,2049,-68,12,-25
429695,-96875,-5468,2343,2061,-67,12,-26
429697,-96875,-5468,2343,2053,-67,12,-26
429699,-96875,-5468,2343,2043,-67,12,-26
429701,-96875,-5468,2343,2045,-67,12,-26
429703,-96875,-5468,2343,2048,-66,12,-26
429720,-96093,-4687,3125,2052,-63,13,-26
429722,-96093,-4687,3125,2046,-63,13,-26
429723,-96093,-4687,3125,2052,-62,13,-26
429725,-96093,-4687,3125,2053,-62,13,-26
429726,-96093,-4687,3125,2048,-62,13,-26
429728,-96093,-4687,3125,2048,-62,13,-26
429729,-96093,-4687,3125,2043,-62,13,-26
429731,-96093,-4687,3125,2049,-61,13,-26
429732,-96093,-3906,3906,2045,-61,13,-26
429734,-96093,-3906,3906,2057,-61,14,-26
429735,-96093,-3906,3906,2057,-61,14,-26
429737,-96093,-3906,3906,2041,-60,14,-26
429738,-96093,-3906,3906,2041,-60,14,-26
429740,-96093,-3906,3906,2051,-60,14,-26
429741,-96093,-3906,3906,2054,-60,14,-26
429742,-94531,-5468,3125,2048,-60,14,-26
429744,-94531,-5468,3125,2042,-59,14,-26
429745,-94531,-5468,3125,2057,-59,14,-26
429747,-94531,-5468,3125,2043,-58,14,-26
429748,-94531,-5468,3125,2051,-58,14,-26
429750,-94531,-5468,3125,2048,-58,14,-26
429751,-95312,-4687,5468,2048,-58,14,-26
429753,-95312,-4687,5468,2048,-57,14,-26
429754,-95312,-4687,5468,2046,-57,14,-26
429756,-95312,-4687,5468,2040,-57,14,-26
429757,-95312,-4687,5468,2052,-57,14,-26
429759,-95312,-4687,5468,2046,-56,14,-26
429760,-95312,-4687,5468,2057,-56,14,-26
429762,-96093,-5468,3906,2062,-56,14,-26
429763,-96093,-5468,3906,2051,-56,14,-26
429765,-96093,-5468,3906,2056,-56,14,-25
429767,-96093,-5468,3906,2041,-55,14,-25
429769,-96093,-5468,3906,2051,-55,14,-25
429771,-96093,-5468,3906,2057,-54,14,-25
429773,-94531,-7031,4687,2053,-54,14,-25
429775,-94531,-7031,4687,2048,-54,14,-25
429777,-94531,-7031,4687,2057,-53,14,-25
429779,-94531,-7031,4687,2051,-53,14,-25
429781,-94531,-7031,4687,2051,-53,14,-25
429783,-95312,-4687,4687,2053,-53,14,-25
429785,-95312,-4687,4687,2048,-52,14,-25
429787,-95312,-4687,4687,2058,-52,14,-25
429789,-95312,-4687,4687,2052,-51,15,-25
429791,-95312,-4687,4687,2047,-51,15,-25
429793,-95312,-3906,3906,2048,-50,15,-25
429795,-95312,-3906,3906,2047,-50,15,-25
429797,-95312,-3906,3906,2056,-50,15,-25
429799,-95312,-3906,3906,2051,-49,15,-25
429801,-95312,-3906,3906,2049,-49,15,-25
429803,-94531,-6250,3906,2052,-49,15,-26
429805,-94531,-6250,3906,2043,-49,15,-26
429807,-94531,-6250,3906,2052,-49,15,-26
429809,-94531,-6250,3906,2054,-48,15,-26
429811,-94531,-6250,3906,2057,-48,15,-26
429813,-96093,-5468,3125,2046,-47,15,-26
429815,-96093,-5468,3125,2051,-47,16,-25
429817,-96093,-5468,3125,2059,-46,16,-25
429819,-96093,-5468,3125,2047,-46,16,-25
429821,-96093,-5468,3125,2059,-46,16,-25
429823,-95312,-6250,2343,2061,-45,16,-25
429825,-95312,-6250,2343,2043,-45,16,-25
429827,-95312,-6250,2343,2046,-45,16,-25
429829,-95312,-6250,2343,2053,-44,17,-25
429831,-95312,-6250,2343,2064,-44,17,-25
429833,-95312,-5468,3125,2041,-43,17,-25
429835,-95312,-5468,3125,2048,-43,17,-25
429837,-95312,-5468,3125,2054,-43,18,-25
429839,-95312,-5468,3125,2046,-42,18,-25
429841,-95312,-5468,3125,2058,-42,18,-25
429843,-95312,-5468,3125,2061,-41,18,-25
429845,-95312,-5468,3125,2045,-41,19,-25
429847,-95312,-5468,3125,2056,-40,19,-25
429849,-95312,-5468,3125,2053,-40,19,-25
429851,-95312,-5468,3125,2058,-40,19,-25
429853,-95312,-5468,4687,2061,-39,19,-25
429855,-95312,-5468,4687,2051,-39,19,-25
429857,-95312,-5468,4687,2052,-39,19,-25
429859,-95312,-5468,4687,2049,-38,19,-25
429861,-95312,-5468,4687,2057,-38,19,-25
429863,-96093,-4687,2343,2047,-38,20,-25
429865,-96093,-4687,2343,2063,-38,20,-25
429867,-96093,-4687,2343,2058,-37,20,-25
429869,-96093,-4687,2343,2048,-37,20,-25
429871,-96093,-4687,2343,2047,-37,20,-25
429873,-95312,-7031,2343,2041,-37,20,-25
429875,-95312,-7031,2343,2051,-36,20,-25
429877,-95312,-7031,2343,2045,-36,20,-25
429879,-95312,-7031,2343,2047,-36,21,-25
429881,-95312,-7031,2343,2051,-35,21,-25
429883,-95312,-7031,3125,2048,-35,21,-25
429885,-95312,-7031,3125,2056,-35,20,-25
429887,-95312,-7031,3125,2047,-34,20,-26
429889,-95312,-7031,3125,2048,-34,20,-26
429891,-95312,-7031,3125,2053,-34,20,-26
429893,-95312,-6250,1562,2054,-34,20,-26
429895,-95312,-6250,1562,2047,-33,21,-26
429897,-95312,-6250,1562,2058,-33,20,-26
429899,-95312,-6250,1562,2053,-33,21,-26
429901,-95312,-6250,1562,2048,-32,21,-26
429903,-95312,-4687,2343,2058,-32,21,-26
429905,-95312,-4687,2343,2046,-32,21,-25
429907,-95312,-4687,2343,2061,-32,21,-25
429910,-95312,-4687,2343,2053,-31,21,-25
429911,-95312,-4687,2343,2049,-31,21,-25
429913,-96093,-6250,781,2052,-31,21,-25
429915,-96093,-6250,781,2059,-30,21,-25
429917,-96093,-6250,781,2051,-30,21,-25
429919,-96093,-6250,781,2057,-30,21,-25
429921,-96093,-6250,781,2052,-30,21,-25
429923,-96093,-6250,781,2051,-29,21,-25
429925,-96875,-9375,1562,2049,-29,21,-25
429927,-96875,-9375,1562,2043,-29,21,-25
429929,-96875,-9375,1562,2048,-29,21,-26
429931,-96875,-9375,1562,2054,-29,21,-26
429933,-96875,-9375,1562,2052,-28,21,-26
429935,-96875,-7031,0,2042,-28,21,-26
429937,-96875,-7031,0,2061,-28,22,-26
429939,-96875,-7031,0,2051,-28,22,-26
429941,-96875,-7031,0,2051,-27,22,-26
429943,-96875,-7031,0,2045,-27,22,-26
429945,-95312,-3125,0,2054,-27,22,-26
429947,-95312,-3125,0,2051,-27,22,-26
429949,-95312,-3125,0,2046,-27,22,-26
429951,-95312,-3125,0,2052,-27,22,-26
429953,-95312,-3125,0,2048,-27,22,-26
429955,-97656,-3125,0,2046,-26,22,-26
429957,-97656,-3125,0,2054,-26,22,-25
429959,-97656,-3125,0,2046,-26,22,-25
429961,-97656,-3125,0,2045,-26,22,-25
429963,-97656,-3125,0,2047,-25,22,-25
429965,-96875,-9375,2343,2049,-25,23,-25
429967,-96875,-9375,2343,2047,-25,23,-25
429969,-96875,-9375,2343,2038,-25,23,-25
429971,-96875,-9375,2343,2051,-25,24,-25
429973,-96875,-9375,2343,2048,-25,24,-25
429975,-97656,-8593,0,2048,-25,24,-25
429977,-97656,-8593,0,2049,-24,24,-25
429980,-97656,-8593,0,2056,-24,24,-25
429981,-97656,-8593,0,2056,-24,24,-25
429983,-97656,-8593,0,2046,-24,24,-25
429985,-97656,-6250,781,2053,-24,24,-25
429987,-97656,-6250,781,2048,-24,24,-25
429989,-97656,-6250,781,2042,-24,24,-25
429991,-97656,-6250,781,2052,-24,24,-25
429993,-97656,-6250,781,2056,-24,25,-26
429995,-96875,-5468,-781,2051,-24,25,-26
429997,-96875,-5468,-781,2042,-23,25,-26
429999,-96875,-5468,-781,2047,-23,25,-26
430001,-96875,-5468,-781,2059,-23,25,-26
430003,-96875,-5468,-781,2043,-23,25,-26
430005,-97656,-3125,-1562,2048,-23,25,-26
430007,-97656,-3125,-1562,2051,-23,25,-26
430009,-97656,-3125,-1562,2045,-23,25,-26
430011,-97656,-3125,-1562,2045,-23,25,-26
430013,-97656,-3125,-1562,2051,-23,26,-26
430015,-98437,-3906,-781,2051,-23,26,-26
430017,-98437,-3906,-781,2045,-23,26,-26
430019,-98437,-3906,-781,2041,-23,26,-26
430021,-98437,-3906,-781,2051,-23,26,-26
430023,-98437,-3906,-781,2062,-23,26,-26
430025,-97656,-7031,-781,2046,-23,26,-25
430027,-97656,-7031,-781,2054,-23,26,-25
430029,-97656,-7031,-781,2049,-23,26,-25
430031,-97656,-7031,-781,2051,-23,27,-25
430033,-97656,-7031,-781,2051,-23,26,-26
430035,-98437,-7812,-781,2061,-23,27,-26
430037,-98437,-7812,-781,2045,-23,27,-25
430039,-98437,-7812,-781,2056,-23,27,-25
430041,-98437,-7812,-781,2053,-22,27,-25
430043,-98437,-7812,-781,2054,-22,27,-25
430045,-98437,-7031,-781,2053,-23,27,-26
430048,-98437,-7031,-781,2054,-23,28,-26
430049,-98437,-7031,-781,2051,-23,28,-26
430051,-98437,-7031,-781,2049,-23,28,-26
430053,-98437,-7031,-781,2051,-23,28,-26
430055,-98437,-4687,-2343,2062,-23,28,-25
430057,-98437,-4687,-2343,2049,-23,28,-25
430059,-98437,-4687,-2343,2057,-23,28,-25
430061,-98437,-4687,-2343,2045,-23,28,-26
430063,-98437,-4687,-2343,2049,-23,28,-25
430065,-99218,-4687,-781,2051,-23,28,-25
430067,-99218,-4687,-781,2054,-23,28,-25
430069,-99218,-4687,-781,2049,-23,28,-25
430071,-99218,-4687,-781,2056,-23,28,-25
430073,-99218,-4687,-781,2057,-23,28,-25
430075,-99218,-6250,-1562,2047,-23,28,-25
430077,-99218,-6250,-1562,2057,-23,28,-25
430079,-99218,-6250,-1562,2056,-23,29,-25
430081,-99218,-6250,-1562,2056,-23,29,-25
430083,-99218,-6250,-1562,2059,-23,29,-25
430085,-99218,-7812,-1562,2053,-23,29,-25
430087,-99218,-7812,-1562,2043,-23,29,-25
430089,-99218,-7812,-1562,2051,-23,29,-25
430091,-99218,-7812,-1562,2057,-23,29,-25
430093,-99218,-7812,-1562,2047,-23,30,-26
430095,-99218,-7812,-1562,2061,-23,30,-26
430097,-99218,-7812,-1562,2053,-23,30,-26
430099,-99218,-7812,-1562,2059,-23,30,-26
430101,-99218,-7812,-1562,2041,-23,30,-26
430103,-99218,-7812,-1562,2045,-23,30,-26
430105,-99218,-7812,-1562,2054,-23,30,-26
430107,-99218,-4687,-3125,2051,-23,30,-26
430109,-99218,-4687,-3125,2048,-23,31,-26
430111,-99218,-4687,-3125,2056,-23,31,-26
430114,-99218,-4687,-3125,2054,-24,31,-26
430115,-99218,-4687,-3125,2061,-24,31,-26
430117,-99218,-4687,-1562,2062,-24,31,-26
430119,-99218,-4687,-1562,2056,-24,31,-26
430121,-99218,-4687,-1562,2053,-24,31,-25
430123,-99218,-4687,-1562,2049,-24,31,-25
430125,-99218,-4687,-1562,2051,-24,31,-25
430127,-100000,-4687,-1562,2042,-24,31,-25
430129,-100000,-4687,-1562,2061,-24,31,-25
430131,-100000,-4687,-1562,2051,-24,31,-25
430133,-100000,-4687,-1562,2049,-24,31,-25
430135,-100000,-4687,-1562,2051,-24,31,-25
430137,-99218,-5468,-1562,2053,-24,31,-25
430139,-99218,-5468,-1562,2047,-25,31,-25
430141,-99218,-5468,-1562,2053,-25,31,-25
430143,-99218,-5468,-1562,2048,-25,31,-25
430145,-99218,-5468,-1562,2047,-25,31,-25
430147,-98437,-7031,-1562,2047,-25,31,-25
430149,-98437,-7031,-1562,2057,-25,31,-25
430151,-98437,-7031,-1562,2062,-25,32,-25
430153,-98437,-7031,-1562,2046,-25,32,-25
430155,-98437,-7031,-1562,2045,-25,31,-25
430157,-100781,-4687,-1562,2042,-25,31,-25
430159,-100781,-4687,-1562,2061,-25,31,-25
430161,-100781,-4687,-1562,2051,-25,31,-25
430163,-100781,-4687,-1562,2045,-25,31,-25
430165,-100781,-4687,-1562,2052,-25,31,-25
430167,-100000,-5468,-3125,2042,-25,31,-25
430169,-100000,-5468,-3125,2052,-25,31,-26
430171,-100000,-5468,-3125,2046,-25,31,-26
430173,-100000,-5468,-3125,2042,-25,31,-25
430175,-100000,-5468,-3125,2061,-25,31,-25
430177,-100000,-4687,-3906,2058,-26,31,-26
430179,-100000,-4687,-3906,2051,-26,31,-26
430181,-100000,-4687,-3906,2051,-26,31,-26
430183,-100000,-4687,-3906,2058,-26,31,-26
430198,-100000,-6250,-1562,2061,-27,31,-25
430200,-100000,-6250,-1562,2046,-27,31,-26
430201,-100000,-6250,-1562,2051,-27,31,-26
430203,-100000,-6250,-1562,2049,-27,31,-25
430204,-100000,-6250,-1562,2047,-28,31,-25
430206,-100000,-6250,-1562,2053,-28,32,-25
430207,-100781,-7031,-3125,2049,-28,32,-25
430209,-100781,-7031,-3125,2053,-28,32,-25
430210,-100781,-7031,-3125,2051,-28,32,-25
430212,-100781,-7031,-3125,2057,-28,32,-25
430213,-100781,-7031,-3125,2043,-28,32,-25
430215,-100781,-7031,-3125,2049,-28,32,-25
430216,-100781,-7031,-3125,2051,-28,32,-26
430218,-100000,-5468,-3125,2059,-28,32,-26
430219,-100000,-5468,-3125,2054,-28,32,-26
430221,-100000,-5468,-3125,2049,-28,32,-26
430222,-100000,-5468,-3125,2043,-28,33,-26
430224,-100000,-5468,-3125,2053,-28,33,-26
430225,-100000,-5468,-3125,2046,-29,33,-26
430227,-100000,-5468,-3125,2046,-29,33,-26
430228,-100781,-5468,-2343,2051,-29,33,-25
430230,-100781,-5468,-2343,2058,-29,33,-25
430231,-100781,-5468,-2343,2051,-29,33,-26
430232,-100781,-5468,-2343,2042,-29,33,-26
430234,-100781,-5468,-2343,2053,-29,33,-25
430235,-100781,-5468,-2343,2053,-29,33,-25
430237,-100781,-4687,-2343,2054,-29,33,-25
430239,-100781,-4687,-2343,2051,-29,33,-25
430241,-100781,-4687,-2343,2057,-30,33,-25
430243,-100781,-4687,-2343,2052,-30,34,-25
430245,-100781,-4687,-2343,2059,-30,34,-25
430247,-100000,-6250,-2343,2045,-30,34,-25
430249,-100000,-6250,-2343,2047,-30,34,-25
430251,-100000,-6250,-2343,2056,-30,34,-25
430253,-100000,-6250,-2343,2051,-31,34,-25
430255,-100000,-6250,-2343,2046,-31,34,-25
430257,-100781,-5468,-1562,2041,-31,34,-25
430259,-100781,-5468,-1562,2052,-31,34,-25
430261,-100781,-5468,-1562,2056,-31,34,-25
430263,-100781,-5468,-1562,2045,-31,34,-25
430265,-100781,-5468,-1562,2051,-31,34,-25
430267,-100781,-6250,-1562,2047,-32,34,-25
430269,-100781,-6250,-1562,2051,-32,34,-25
430271,-100781,-6250,-1562,2052,-32,34,-25
430273,-100781,-6250,-1562,2052,-32,34,-25
430275,-100781,-6250,-1562,2051,-32,34,-26
430277,-100000,-4687,-781,2053,-32,34,-26
430279,-100000,-4687,-781,2049,-32,34,-26
430281,-100000,-4687,-781,2042,-32,34,-26
430283,-100000,-4687,-781,2061,-33,34,-25
430285,-100000,-4687,-781,2042,-33,34,-25
430287,-100000,-4687,-781,2043,-33,34,-25
430289,-100781,-4687,-2343,2053,-33,34,-25
430291,-100781,-4687,-2343,2057,-34,34,-25
430293,-100781,-4687,-2343,2049,-34,34,-25
430295,-100781,-4687,-2343,2059,-34,34,-25
430297,-100781,-4687,-2343,2046,-34,34,-25
430299,-100000,-5468,-1562,2056,-34,34,-25
430301,-100000,-5468,-1562,2048,-34,34,-25
430303,-100000,-5468,-1562,2057,-34,34,-25
430305,-100000,-5468,-1562,2061,-35,34,-25
430308,-100000,-5468,-1562,2048,-35,33,-25
430309,-100000,-5468,-1562,2048,-35,34,-25
430311,-100000,-5468,-1562,2047,-35,34,-24
430313,-100000,-5468,-1562,2047,-35,34,-25
430315,-100000,-5468,-1562,2061,-35,34,-25
430317,-100000,-5468,-1562,2059,-35,33,-25
430319,-100781,-5468,-781,2046,-35,33,-25
430321,-100781,-5468,-781,2057,-35,34,-25
430323,-100781,-5468,-781,2047,-36,34,-24
430325,-100781,-5468,-781,2051,-36,34,-24
430327,-100781,-5468,-781,2051,-36,34,-25
430329,-100000,-5468,-1562,2046,-36,34,-24
430331,-100000,-5468,-1562,2057,-36,34,-24
430333,-100000,-5468,-1562,2053,-36,34,-24
430335,-100000,-5468,-1562,2047,-36,34,-24
430337,-100000,-5468,-1562,2051,-36,34,-24
430339,-100781,-4687,-1562,2049,-37,34,-24
430341,-100781,-4687,-1562,2048,-37,34,-24
430343,-100781,-4687,-1562,2052,-37,34,-24
430345,-100781,-4687,-1562,2058,-37,34,-24
430347,-100781,-4687,-1562,2046,-37,34,-24
430349,-100000,-3906,-1562,2053,-37,34,-24
430351,-100000,-3906,-1562,2051,-37,34,-24
430353,-100000,-3906,-1562,2045,-37,34,-24
430355,-100000,-3906,-1562,2047,-38,34,-24
430357,-100000,-3906,-1562,2046,-38,34,-24
430359,-100000,-7031,-1562,2047,-38,34,-24
430361,-100000,-7031,-1562,2045,-38,34,-24
430363,-100000,-7031,-1562,2053,-38,34,-24
430365,-100000,-7031,-1562,2041,-39,34,-24
430367,-100000,-7031,-1562,2051,-38,34,-24
430370,-100000,-6250,0,2047,-38,35,-24
430371,-100000,-6250,0,2051,-38,35,-24
430373,-100000,-6250,0,2053,-39,35,-24
430375,-100000,-6250,0,2047,-39,35,-24
430377,-100000,-6250,0,2046,-39,35,-23
430379,-100000,-5468,0,2063,-39,35,-23
430381,-100000,-5468,0,2048,-39,35,-24
430383,-100000,-5468,0,2053,-39,35,-24
430385,-100000,-5468,0,2051,-39,35,-24
430387,-100000,-5468,0,2047,-39,35,-24
430389,-100000,-5468,0,2048,-39,36,-24
430391,-100000,-5468,0,2047,-39,36,-24
430393,-100000,-5468,0,2049,-39,35,-24
430395,-100000,-5468,0,2053,-39,35,-24
430397,-100000,-5468,0,2046,-40,35,-24
430399,-100000,-3906,0,2057,-40,35,-24
430401,-100000,-3906,0,2047,-40,35,-24
430403,-100000,-3906,0,2056,-40,35,-23
430405,-100000,-3906,0,2051,-40,35,-23
430407,-100000,-3906,0,2049,-40,35,-23
430409,-100000,-1562,-781,2059,-40,35,-23
430411,-100000,-1562,-781,2047,-40,35,-23
430413,-100000,-1562,-781,2051,-40,35,-23
430415,-100000,-1562,-781,2047,-40,35,-23
430417,-100000,-1562,-781,2045,-40,35,-23
430419,-100000,-6250,-781,2041,-40,35,-23
430421,-100000,-6250,-781,2048,-40,35,-23
430423,-100000,-6250,-781,2045,-40,35,-23
430425,-100000,-6250,-781,2051,-40,34,-23
430427,-100000,-6250,-781,2049,-40,34,-23
430429,-99218,-6250,0,2041,-40,34,-23
430431,-99218,-6250,0,2054,-40,34,-23
430433,-99218,-6250,0,2054,-40,34,-23
430435,-99218,-6250,0,2051,-40,34,-23
430437,-99218,-6250,0,2052,-40,34,-23
430439,-100000,-7031,-781,2058,-40,34,-23
430441,-100000,-7031,-781,2051,-40,34,-23
430443,-100000,-7031,-781,2059,-40,34,-23
430445,-100000,-7031,-781,2056,-40,34,-23
430447,-100000,-7031,-781,2049,-40,34,-23
430449,-100000,-7031,-781,2056,-40,34,-23
430451,-100000,-4687,-781,2056,-40,34,-23
430453,-100000,-4687,-781,2059,-40,34,-23
430455,-100000,-4687,-781,2056,-40,34,-22
430457,-100000,-4687,-781,2058,-40,34,-22
430459,-100000,-4687,-781,2045,-40,34,-22
430461,-99218,-2343,-781,2051,-40,33,-22
430463,-99218,-2343,-781,2051,-40,33,-22
430465,-99218,-2343,-781,2061,-40,33,-22
430467,-99218,-2343,-781,2046,-40,33,-22
430469,-99218,-2343,-781,2053,-40,34,-22
430471,-100000,-7031,-781,2053,-40,34,-22
430473,-100000,-7031,-781,2048,-40,34,-22
430475,-100000,-7031,-781,2049,-40,34,-22
430477,-100000,-7031,-781,2049,-40,34,-22
430479,-100000,-7031,-781,2053,-40,34,-22
430481,-100000,-7031,-781,2053,-41,34,-22
430483,-100000,-7031,-781,2052,-41,34,-22
430485,-100000,-7031,-781,2049,-41,34,-22
430487,-100000,-7031,-781,2056,-41,34,-22
430489,-100000,-7031,-781,2061,-41,34,-22
430491,-100000,-7031,-781,2047,-41,34,-22
430493,-100000,-7031,-781,2046,-41,34,-22
430495,-100000,-7031,-781,2048,-41,34,-22
430497,-100000,-7031,-781,2058,-41,34,-22
430500,-100000,-7031,-781,2051,-41,34,-22
430501,-99218,-5468,-1562,2049,-41,34,-22
430503,-99218,-5468,-1562,2057,-41,35,-22
430505,-99218,-5468,-1562,2051,-41,35,-21
430507,-99218,-5468,-1562,2053,-42,35,-21
430509,-99218,-5468,-1562,2051,-41,35,-21
430511,-100781,-781,-781,2046,-42,35,-21
430513,-100781,-781,-781,2048,-41,35,-21
430515,-100781,-781,-781,2049,-41,35,-21
430517,-100781,-781,-781,2048,-41,35,-21
430519,-100781,-781,-781,2061,-41,35,-21
430521,-100000,-6250,-781,2053,-41,35,-21
430523,-100000,-6250,-781,2047,-41,35,-21
430525,-100000,-6250,-781,2059,-41,35,-21
430527,-100000,-6250,-781,2058,-42,35,-21
430529,-100000,-6250,-781,2046,-42,35,-21
430531,-100000,-7812,0,2051,-42,35,-21
430533,-100000,-7812,0,2046,-42,35,-20
430535,-100000,-7812,0,2046,-42,35,-20
430537,-100000,-7812,0,2042,-42,35,-20
430539,-100000,-7812,0,2046,-42,35,-21
430541,-100000,-8593,-781,2052,-42,35,-21
430543,-100000,-8593,-781,2047,-42,35,-21
430545,-100000,-8593,-781,2047,-41,35,-21
430547,-100000,-8593,-781,2053,-42,35,-21
430549,-100000,-8593,-781,2054,-42,35,-21
430551,-99218,-6250,-1562,2054,-42,35,-21
430553,-99218,-6250,-1562,2054,-42,35,-21
430555,-99218,-6250,-1562,2066,-42,36,-21
430557,-99218,-6250,-1562,2053,-42,35,-21
430559,-99218,-6250,-1562,2056,-42,36,-21
430561,-100000,-1562,-781,2042,-42,36,-21
430563,-100000,-1562,-781,2049,-42,35,-21
430566,-100000,-1562,-781,2051,-42,35,-20
430567,-100000,-1562,-781,2046,-42,35,-20
430569,-100000,-1562,-781,2054,-42,35,-20
430571,-100000,-6250,-781,2051,-42,35,-20
430573,-100000,-6250,-781,2045,-42,35,-20
430575,-100000,-6250,-781,2052,-42,35,-20
430577,-100000,-6250,-781,2053,-42,35,-20
430579,-100000,-6250,-781,2047,-42,35,-20
430581,-100000,-7031,0,2043,-42,35,-20
430583,-100000,-7031,0,2043,-42,35,-20
430585,-100000,-7031,0,2053,-42,35,-20
430587,-100000,-7031,0,2058,-42,35,-20
430589,-100000,-7031,0,2048,-42,35,-20
430591,-100781,-8593,-781,2051,-42,35,-20
430593,-100781,-8593,-781,2043,-43,35,-20
430595,-100781,-8593,-781,2049,-43,35,-20
430597,-100781,-8593,-781,2051,-43,35,-20
430599,-100781,-8593,-781,2051,-42,35,-20
430601,-100000,-5468,-781,2046,-42,35,-21
430603,-100000,-5468,-781,2056,-42,35,-20
430605,-100000,-5468,-781,2053,-42,35,-21
430607,-100000,-5468,-781,2049,-43,36,-21
430609,-100000,-5468,-781,2041,-43,36,-20
430611,-100000,-3906,-781,2051,-43,36,-20
430613,-100000,-3906,-781,2048,-43,36,-20
430615,-100000,-3906,-781,2056,-43,36,-20
430617,-100000,-3906,-781,2045,-43,35,-20
430619,-100000,-3906,-781,2045,-43,35,-20
430621,-100000,-4687,-781,2056,-43,35,-20
430623,-100000,-4687,-781,2054,-43,35,-20
430625,-100000,-4687,-781,2059,-43,35,-20
430627,-100000,-4687,-781,2048,-43,36,-20
430629,-100000,-4687,-781,2051,-43,36,-20
430631,-100000,-4687,-781,2051,-43,36,-20
430633,-100000,-7031,-1562,2052,-43,36,-20
430635,-100000,-7031,-1562,2056,-43,36,-20
430637,-100000,-7031,-1562,2061,-43,36,-20
430639,-100000,-7031,-1562,2061,-43,36,-20
430641,-100000,-7031,-1562,2062,-43,36,-20
430643,-100781,-8593,-2343,2048,-43,36,-20
430645,-100781,-8593,-2343,2049,-43,36,-20
430647,-100781,-8593,-2343,2067,-43,36,-19
430649,-100781,-8593,-2343,2049,-43,36,-19
430651,-100781,-8593,-2343,2051,-44,36,-20
430653,-100000,-6250,-1562,2061,-44,36,-20
430655,-100000,-6250,-1562,2054,-44,36,-20
430657,-100000,-6250,-1562,2058,-44,36,-20
430659,-100000,-6250,-1562,2053,-44,36,-19
430661,-100000,-6250,-1562,2061,-44,36,-19
430663,-100000,-4687,-781,2048,-44,36,-19
430665,-100000,-4687,-781,2048,-44,36,-19
430667,-100000,-4687,-781,2046,-44,36,-19
430669,-100000,-4687,-781,2049,-44,36,-19
430671,-100000,-4687,-781,2046,-44,36,-19
430673,-100781,-6250,0,2041,-44,36,-19
430675,-100781,-6250,0,2046,-44,36,-19
430677,-100781,-6250,0,2048,-44,36,-19
430679,-100781,-6250,0,2059,-44,36,-19
430681,-100781,-6250,0,2053,-44,36,-19
430683,-100781,-6250,-781,2057,-44,36,-19
430685,-100781,-6250,-781,2052,-44,36,-19
430687,-100781,-6250,-781,2048,-44,36,-18
430689,-100781,-6250,-781,2048,-45,36,-19
430691,-100781,-6250,-781,2056,-45,36,-19
430693,-100000,-7812,-1562,2049,-45,37,-19
430695,-100000,-7812,-1562,2048,-45,37,-19
430697,-100000,-7812,-1562,2052,-45,37,-19
430699,-100000,-7812,-1562,2052,-45,37,-19
430701,-100000,-7812,-1562,2054,-45,38,-19
430719,-100781,-4687,-3125,2051,-46,38,-19
430721,-100781,-4687,-3125,2051,-46,38,-19
430722,-100781,-5468,-2343,2054,-46,38,-19
430724,-100781,-5468,-2343,2046,-46,38,-19
430725,-100781,-5468,-2343,2046,-46,38,-19
430727,-100781,-5468,-2343,2045,-47,38,-19
430729,-100781,-5468,-2343,2052,-47,38,-19
430730,-100781,-5468,-2343,2045,-47,38,-19
430732,-100781,-5468,-2343,2056,-47,38,-19
430733,-102343,-7031,-2343,2046,-47,38,-19
430734,-102343,-7031,-2343,2052,-47,38,-19
430736,-102343,-7031,-2343,2051,-47,38,-19
430737,-102343,-7031,-2343,2058,-47,38,-19
430739,-102343,-7031,-2343,2051,-47,38,-19
430740,-102343,-7031,-2343,2057,-47,38,-19
430742,-102343,-7031,-2343,2054,-48,38,-19
430743,-102343,-7031,-2343,2051,-48,38,-19
430745,-102343,-7031,-2343,2059,-48,38,-19
430746,-102343,-7031,-2343,2047,-48,38,-19
430748,-102343,-7031,-2343,2051,-48,38,-19
430749,-102343,-7031,-2343,2054,-48,38,-19
430751,-102343,-7031,-2343,2058,-48,38,-19
430752,-102343,-7031,-2343,2061,-48,38,-19
430754,-101562,-4687,-2343,2049,-49,38,-19
430755,-101562,-4687,-2343,2043,-49,38,-19
430757,-101562,-4687,-2343,2052,-49,38,-19
430758,-101562,-4687,-2343,2048,-49,38,-19
430760,-101562,-4687,-2343,2047,-49,38,-19
430761,-101562,-4687,-2343,2045,-49,38,-19
430763,-100781,-3906,-3125,2051,-49,38,-19
430764,-100781,-3906,-3125,2054,-49,38,-19
430766,-100781,-3906,-3125,2049,-49,37,-19
430767,-100781,-3906,-3125,2048,-50,37,-19
430769,-100781,-3906,-3125,2052,-50,37,-19
430772,-100781,-3906,-3125,2061,-50,37,-19
430774,-100781,-6250,-2343,2058,-50,37,-19
430775,-100781,-6250,-2343,2056,-50,37,-19
430777,-100781,-6250,-2343,2052,-50,37,-19
430779,-100781,-6250,-2343,2062,-51,37,-19
430781,-100781,-6250,-2343,2058,-51,36,-19
430783,-102343,-8593,-3125,2057,-51,37,-19
430785,-102343,-8593,-3125,2047,-51,36,-19
430787,-102343,-8593,-3125,2042,-51,37,-19
430789,-102343,-8593,-3125,2057,-51,37,-19
430791,-102343,-8593,-3125,2054,-51,36,-19
430793,-101562,-7031,-2343,2056,-52,36,-19
430795,-101562,-7031,-2343,2051,-52,36,-19
430797,-101562,-7031,-2343,2059,-52,36,-19
430799,-101562,-7031,-2343,2051,-52,36,-19
430801,-101562,-7031,-2343,2045,-52,36,-19
430803,-101562,-5468,-2343,2040,-52,36,-19
430805,-101562,-5468,-2343,2048,-52,36,-19
430807,-101562,-5468,-2343,2043,-53,36,-19
430809,-101562,-5468,-2343,2047,-53,36,-19
430811,-101562,-5468,-2343,2047,-53,36,-19
430813,-101562,-5468,-2343,2051,-53,36,-19
430815,-101562,-4687,-3125,2047,-53,36,-19
430817,-101562,-4687,-3125,2051,-54,36,-19
430819,-101562,-4687,-3125,2043,-54,37,-19
430821,-101562,-4687,-3125,2061,-54,37,-19
430823,-101562,-4687,-3125,2049,-55,37,-19
430825,-102343,-3906,-3125,2047,-54,37,-19
430827,-102343,-3906,-3125,2059,-55,36,-19
430829,-102343,-3906,-3125,2043,-55,36,-19
430831,-102343,-3906,-3125,2045,-55,36,-19
430833,-102343,-3906,-3125,2051,-55,37,-19
430835,-103125,-8593,-1562,2051,-55,37,-19
430838,-103125,-8593,-1562,2056,-56,37,-19
430839,-103125,-8593,-1562,2051,-56,37,-19
430841,-103125,-8593,-1562,2053,-56,37,-19
430843,-103125,-8593,-1562,2048,-56,37,-19
430845,-102343,-7031,-2343,2051,-57,36,-19
430847,-102343,-7031,-2343,2052,-57,36,-19
430849,-102343,-7031,-2343,2041,-57,36,-19
430851,-102343,-7031,-2343,2053,-57,37,-19
430853,-102343,-7031,-2343,2046,-58,37,-19
430855,-102343,-7031,-3906,2058,-58,37,-19
430857,-102343,-7031,-3906,2048,-58,37,-19
430859,-102343,-7031,-3906,2052,-58,37,-19
430861,-102343,-7031,-3906,2048,-58,37,-19
430863,-102343,-7031,-3906,2052,-59,36,-19
