timestamp,accX,accY,accZ,pressure,gyroX,gyroY,gyroZ
26280,-103125,7031,-2343,2031,-74,28,-24
26283,-103125,7031,-2343,2040,-74,28,-24
26285,-103125,7031,-2343,2041,-74,29,-24
26287,-103125,7812,-781,2046,-75,28,-23
26288,-103125,7812,-781,2036,-75,28,-24
26290,-103125,7812,-781,2041,-75,28,-24
26292,-103125,7812,-781,2037,-75,28,-24
26294,-103125,7812,-781,2041,-75,28,-24
26296,-103125,7812,-781,2042,-75,28,-24
26298,-102343,7031,-2343,2046,-75,28,-24
26300,-102343,7031,-2343,2042,-75,28,-24
26302,-102343,7031,-2343,2038,-75,28,-24
26304,-102343,7031,-2343,2035,-75,28,-24
26306,-102343,7031,-2343,2043,-75,28,-24
26308,-102343,7031,-2343,2051,-76,28,-24
26310,-102343,7031,-2343,2031,-76,28,-24
26312,-102343,7031,-2343,2038,-76,28,-24
26314,-102343,7031,-2343,2041,-76,28,-24
26316,-102343,7031,-2343,2040,-76,28,-24
26318,-103125,6250,-2343,2041,-77,29,-24
26320,-103125,6250,-2343,2031,-77,29,-24
26322,-103125,6250,-2343,2045,-77,28,-24
26324,-103125,6250,-2343,2036,-77,28,-24
26326,-103125,6250,-2343,2038,-77,28,-24
26328,-102343,5468,-2343,2046,-77,28,-24
26330,-102343,5468,-2343,2049,-78,28,-24
26332,-102343,5468,-2343,2038,-78,29,-24
26335,-102343,5468,-2343,2043,-78,29,-24
26336,-102343,5468,-2343,2043,-78,29,-24
26338,-102343,6250,-1562,2036,-78,29,-24
26340,-102343,6250,-1562,2052,-78,29,-24
26342,-102343,6250,-1562,2036,-78,29,-24
26344,-102343,6250,-1562,2041,-79,29,-24
26346,-102343,6250,-1562,2043,-79,30,-24
26348,-102343,5468,-1562,2040,-79,30,-24
26350,-102343,5468,-1562,2047,-79,30,-24
26352,-102343,5468,-1562,2037,-79,30,-24
26354,-102343,5468,-1562,2042,-79,30,-24
26356,-102343,5468,-1562,2049,-79,30,-24
26358,-102343,6250,-2343,2047,-79,31,-24
26360,-102343,6250,-2343,2042,-79,31,-24
26362,-102343,6250,-2343,2036,-80,31,-24
26364,-102343,6250,-2343,2036,-80,31,-24
26366,-102343,6250,-2343,2040,-80,31,-24
26368,-103125,5468,-1562,2040,-80,31,-24
26370,-103125,5468,-1562,2041,-80,31,-25
26372,-103125,5468,-1562,2040,-80,32,-24
26374,-103125,5468,-1562,2041,-80,32,-24
26376,-103125,5468,-1562,2042,-81,32,-25
26378,-103125,6250,-781,2043,-81,32,-25
26380,-103125,6250,-781,2042,-81,32,-25
26382,-103125,6250,-781,2033,-81,32,-25
26384,-103125,6250,-781,2046,-82,32,-25
26386,-103125,6250,-781,2033,-82,32,-25
26388,-103125,6250,-1562,2046,-82,32,-25
26390,-103125,6250,-1562,2043,-82,33,-25
26392,-103125,6250,-1562,2040,-83,33,-25
26394,-103125,6250,-1562,2038,-83,33,-25
26397,-103125,6250,-1562,2046,-83,33,-25
26398,-102343,6250,-781,2049,-83,33,-25
26400,-102343,6250,-781,2048,-83,33,-25
26402,-102343,6250,-781,2047,-83,33,-25
26404,-102343,6250,-781,2037,-83,33,-25
26406,-102343,6250,-781,2040,-83,33,-25
26408,-102343,5468,-1562,2046,-83,33,-25
26410,-102343,5468,-1562,2051,-83,33,-25
26412,-102343,5468,-1562,2043,-83,33,-25
26414,-102343,5468,-1562,2042,-83,33,-25
26416,-102343,5468,-1562,2032,-84,33,-25
26418,-101562,5468,-1562,2040,-84,33,-25
26420,-101562,5468,-1562,2031,-84,33,-25
26422,-101562,5468,-1562,2047,-84,33,-25
26424,-101562,5468,-1562,2042,-84,33,-25
26426,-101562,5468,-1562,2041,-84,33,-26
26428,-101562,6250,-1562,2041,-84,33,-26
26430,-101562,6250,-1562,2036,-84,33,-26
26432,-101562,6250,-1562,2042,-84,33,-26
26434,-101562,6250,-1562,2040,-84,33,-26
26436,-101562,6250,-1562,2037,-85,33,-26
26438,-101562,6250,-1562,2036,-85,33,-26
26440,-101562,6250,-1562,2036,-85,33,-26
26442,-101562,6250,-1562,2031,-85,33,-26
26444,-101562,6250,-1562,2036,-85,33,-26
26446,-101562,6250,-1562,2041,-85,33,-26
26448,-101562,6250,-1562,2031,-85,34,-26
26450,-102343,5468,-781,2036,-85,33,-26
26452,-102343,5468,-781,2035,-85,34,-26
26454,-102343,5468,-781,2038,-85,34,-26
26457,-102343,5468,-781,2043,-85,34,-26
26458,-102343,5468,-781,2040,-85,34,-26
26460,-101562,5468,-781,2051,-86,34,-26
26462,-101562,5468,-781,2052,-85,34,-26
26464,-101562,5468,-781,2048,-86,34,-26
26466,-101562,5468,-781,2031,-86,34,-26
26468,-101562,5468,-781,2042,-86,34,-26
26470,-102343,5468,-781,2041,-86,34,-26
26472,-102343,5468,-781,2041,-86,34,-26
26474,-102343,5468,-781,2045,-86,34,-26
26476,-102343,5468,-781,2041,-86,34,-26
26478,-102343,5468,-781,2041,-86,34,-26
26480,-101562,5468,0,2041,-86,35,-26
26482,-101562,5468,0,2041,-86,35,-26
26484,-101562,5468,0,2045,-86,35,-26
26486,-101562,5468,0,2043,-86,35,-26
26488,-101562,5468,0,2046,-86,35,-27
26490,-101562,7031,0,2032,-86,35,-27
26492,-101562,7031,0,2051,-87,35,-27
26494,-101562,7031,0,2035,-87,35,-27
26496,-101562,7031,0,2040,-87,35,-27
26498,-101562,7031,0,2041,-87,36,-27
26500,-101562,4687,781,2036,-87,36,-27
26502,-101562,4687,781,2041,-86,36,-27
26504,-101562,4687,781,2045,-87,36,-27
26506,-101562,4687,781,2042,-87,36,-27
26508,-101562,4687,781,2042,-87,36,-27
26510,-100781,5468,-781,2036,-87,36,-27
26512,-100781,5468,-781,2035,-87,36,-27
26514,-100781,5468,-781,2038,-87,36,-27
26516,-100781,5468,-781,2042,-87,36,-27
26518,-100781,5468,-781,2049,-87,36,-27
26521,-100781,5468,0,2033,-87,37,-27
26522,-100781,5468,0,2046,-87,37,-27
26524,-100781,5468,0,2049,-87,37,-26
26526,-100781,5468,0,2038,-87,37,-26
26528,-100781,5468,0,2038,-87,37,-27
26530,-100781,5468,0,2051,-87,37,-27
26532,-100781,5468,0,2033,-87,37,-26
26534,-100781,5468,0,2040,-87,37,-26
26536,-100781,5468,0,2041,-87,37,-26
26538,-100781,5468,0,2041,-87,37,-26
26540,-100781,5468,781,2045,-87,37,-26
26542,-100781,5468,781,2051,-88,37,-26
26544,-100781,5468,781,2042,-88,37,-26
26546,-100781,5468,781,2045,-88,37,-26
26548,-100781,5468,781,2045,-88,38,-26
26550,-100781,5468,0,2035,-88,38,-27
26552,-100781,5468,0,2040,-88,38,-27
26554,-100781,5468,0,2038,-88,38,-27
26556,-100781,5468,0,2031,-88,38,-27
26558,-100781,5468,0,2046,-87,38,-27
26560,-100781,6250,0,2043,-87,38,-27
26562,-100781,6250,0,2031,-87,38,-27
26564,-100781,6250,0,2032,-87,38,-27
26566,-100781,6250,0,2042,-87,38,-27
26568,-100781,6250,0,2045,-87,38,-27
26570,-100781,5468,0,2047,-87,38,-27
26572,-100781,5468,0,2031,-87,38,-27
26574,-100781,5468,0,2036,-87,38,-27
26576,-100781,5468,0,2037,-87,38,-27
26578,-100781,5468,0,2035,-87,38,-27
26580,-100781,5468,781,2043,-87,38,-27
26582,-100781,5468,781,2041,-87,38,-27
26584,-100781,5468,781,2040,-87,39,-27
26586,-100781,5468,781,2042,-87,39,-27
26588,-100781,5468,781,2051,-87,39,-27
26590,-99218,5468,781,2032,-86,39,-28
26592,-99218,5468,781,2033,-86,39,-28
26594,-99218,5468,781,2033,-86,38,-28
26596,-99218,5468,781,2043,-86,38,-28
26598,-99218,5468,781,2038,-86,39,-28
26600,-100781,5468,1562,2047,-86,39,-28
26602,-100781,5468,1562,2042,-86,39,-28
26604,-100781,5468,1562,2038,-86,39,-28
26606,-100781,5468,1562,2040,-86,39,-28
26653,-100000,5468,781,2049,-84,41,-29
26654,-100000,5468,781,2068,-84,41,-29
26656,-100000,5468,781,2032,-84,41,-29
26657,-100000,5468,781,2027,-84,41,-29
26659,-100000,5468,781,2048,-83,41,-29
26660,-100000,5468,781,2041,-83,41,-29
26662,-100000,7031,2343,2041,-83,41,-29
26663,-100000,7031,2343,2048,-83,42,-29
26665,-100000,7031,2343,2042,-83,42,-29
26666,-100000,7031,2343,2038,-83,42,-29
26668,-100000,7031,2343,2035,-83,42,-29
26669,-100000,7031,2343,2035,-83,42,-29
26671,-100000,7031,2343,2040,-83,42,-29
26672,-100781,5468,0,2040,-82,42,-29
26674,-100781,5468,0,2049,-82,42,-29
26675,-100781,5468,0,2038,-82,42,-29
26677,-100781,5468,0,2038,-82,42,-29
26678,-100781,5468,0,2037,-82,42,-29
26679,-100781,5468,0,2043,-82,42,-29
26681,-100781,5468,0,2035,-82,42,-29
26682,-99218,7812,781,2036,-82,42,-29
26684,-99218,7812,781,2038,-82,42,-29
26685,-99218,7812,781,2046,-81,42,-29
26687,-99218,7812,781,2032,-81,42,-29
26688,-99218,7812,781,2042,-81,42,-29
26690,-99218,7812,781,2042,-81,42,-29
26691,-100000,6250,781,2040,-81,42,-29
26693,-100000,6250,781,2041,-81,42,-29
26694,-100000,6250,781,2036,-81,42,-29
26696,-100000,6250,781,2046,-81,42,-29
26697,-100000,6250,781,2032,-80,42,-30
26699,-100000,6250,781,2036,-80,42,-30
26702,-100000,6250,1562,2047,-80,42,-29
26703,-100000,6250,1562,2052,-80,42,-29
26705,-100000,6250,1562,2051,-80,42,-29
26706,-100000,6250,1562,2054,-80,43,-29
26708,-100000,6250,1562,2045,-80,43,-29
26709,-100000,6250,1562,2046,-80,43,-29
26711,-100000,6250,1562,2038,-79,43,-29
26712,-98437,5468,1562,2033,-79,43,-29
26714,-98437,5468,1562,2047,-79,42,-29
26716,-98437,5468,1562,2046,-79,42,-29
26717,-98437,5468,1562,2046,-79,42,-29
26718,-98437,5468,1562,2045,-79,43,-29
26720,-98437,5468,1562,2037,-79,43,-29
26721,-98437,5468,1562,2038,-78,43,-29
26723,-98437,5468,0,2054,-78,43,-29
26724,-98437,5468,0,2041,-78,43,-29
26726,-98437,5468,0,2056,-78,43,-29
26727,-98437,5468,0,2035,-78,43,-29
26729,-98437,5468,0,2041,-78,43,-29
26730,-98437,5468,0,2036,-78,43,-29
26732,-99218,6250,0,2041,-78,43,-29
26733,-99218,6250,0,2037,-77,43,-29
26735,-99218,6250,0,2032,-77,43,-29
26736,-99218,6250,0,2036,-77,43,-29
26738,-99218,6250,0,2032,-77,43,-29
26739,-99218,6250,0,2043,-77,43,-29
26741,-99218,6250,0,2043,-77,43,-29
26742,-99218,6250,1562,2032,-77,43,-29
26744,-99218,6250,1562,2032,-76,43,-29
26745,-99218,6250,1562,2036,-76,43,-29
26747,-99218,6250,1562,2037,-76,43,-29
26748,-99218,6250,1562,2046,-76,43,-29
26750,-99218,6250,1562,2046,-76,43,-29
26751,-99218,6250,1562,2040,-75,43,-29
26753,-97656,6250,2343,2046,-75,43,-29
26754,-97656,6250,2343,2032,-75,43,-29
26756,-97656,6250,2343,2035,-75,43,-29
26757,-97656,6250,2343,2049,-75,43,-29
26759,-97656,6250,2343,2043,-75,43,-29
26761,-97656,6250,2343,2041,-75,43,-29
26763,-98437,6250,2343,2042,-75,43,-29
26764,-98437,6250,2343,2040,-74,43,-30
26766,-98437,6250,2343,2041,-74,43,-30
26767,-98437,6250,2343,2042,-74,43,-30
26777,-97656,6250,1562,2041,-73,43,-29
26779,-97656,6250,1562,2042,-73,43,-29
26780,-97656,6250,1562,2038,-73,43,-29
26782,-97656,6250,1562,2045,-73,43,-29
26783,-97656,6250,781,2040,-73,43,-29
26785,-97656,6250,781,2041,-73,43,-29
26786,-97656,6250,781,2040,-72,43,-29
26788,-97656,6250,781,2043,-72,43,-29
26789,-97656,6250,781,2051,-72,43,-29
26791,-97656,6250,781,2041,-72,43,-30
26792,-97656,6250,781,2042,-72,43,-29
26794,-97656,6250,2343,2043,-71,43,-29
26795,-97656,6250,2343,2037,-71,43,-29
26797,-97656,6250,2343,2038,-71,43,-29
26798,-97656,6250,2343,2032,-71,43,-30
26800,-97656,6250,2343,2046,-71,43,-30
26801,-97656,6250,2343,2042,-71,43,-30
26803,-97656,6250,3125,2036,-71,43,-30
26804,-97656,6250,3125,2033,-70,43,-30
26806,-97656,6250,3125,2047,-70,43,-30
26807,-97656,6250,3125,2047,-70,43,-30
26809,-97656,6250,3125,2033,-70,43,-30
26810,-97656,6250,3125,2043,-70,43,-30
26812,-97656,6250,3125,2031,-70,43,-30
26813,-96875,5468,3125,2049,-70,43,-30
26815,-96875,5468,3125,2041,-69,43,-29
26816,-96875,5468,3125,2032,-69,43,-30
26818,-96875,5468,3125,2049,-69,43,-30
26819,-96875,5468,3125,2042,-69,43,-30
26821,-96875,5468,3125,2041,-69,43,-30
26822,-96875,5468,3125,2043,-68,43,-29
26824,-96875,6250,2343,2042,-68,43,-29
26826,-96875,6250,2343,2053,-68,43,-30
26828,-96875,6250,2343,2048,-67,44,-30
26830,-96875,6250,2343,2041,-67,44,-30
26831,-96875,6250,2343,2040,-67,44,-30
26833,-96875,6250,2343,2051,-67,44,-30
26834,-97656,7812,2343,2038,-67,44,-30
26836,-97656,7812,2343,2046,-67,44,-29
26838,-97656,7812,2343,2032,-67,44,-29
26840,-97656,7812,2343,2041,-66,44,-30
26842,-97656,7812,2343,2037,-66,44,-30
26844,-97656,6250,2343,2043,-66,44,-30
26846,-97656,6250,2343,2043,-65,44,-30
26848,-97656,6250,2343,2042,-65,44,-30
26850,-97656,6250,2343,2031,-65,44,-30
26852,-97656,6250,2343,2040,-65,44,-29
26854,-97656,7031,3125,2046,-64,44,-29
26856,-97656,7031,3125,2038,-64,44,-30
26858,-97656,7031,3125,2037,-64,44,-30
26860,-97656,7031,3125,2042,-64,44,-30
26862,-97656,7031,3125,2043,-64,44,-30
26864,-97656,6250,3125,2033,-63,44,-30
26866,-97656,6250,3125,2042,-63,44,-30
26868,-97656,6250,3125,2038,-63,44,-30
26870,-97656,6250,3125,2043,-63,44,-30
26872,-97656,6250,3125,2028,-63,44,-30
26874,-96875,6250,2343,2042,-62,44,-30
26876,-96875,6250,2343,2041,-62,44,-30
26878,-96875,6250,2343,2028,-62,43,-30
26880,-96875,6250,2343,2038,-62,43,-30
26882,-96875,6250,2343,2041,-62,43,-30
26884,-97656,7031,3125,2040,-61,43,-30
26886,-97656,7031,3125,2033,-61,43,-30
26888,-97656,7031,3125,2043,-61,43,-30
26890,-97656,7031,3125,2040,-60,43,-30
26892,-97656,7031,3125,2047,-60,43,-30
26894,-96875,7031,3125,2042,-60,43,-30
26896,-96875,7031,3125,2035,-60,43,-30
26898,-96875,7031,3125,2045,-59,43,-30
26900,-96875,7031,3125,2035,-59,43,-30
26902,-96875,7031,3125,2038,-59,43,-30
26904,-96875,7031,1562,2048,-59,43,-30
26906,-96875,7031,1562,2031,-59,43,-30
26908,-96875,7031,1562,2045,-58,43,-30
26935,-96093,6250,2343,2040,-55,43,-30
26937,-96093,6250,2343,2036,-55,43,-30
26938,-96093,6250,2343,2045,-55,44,-30
26940,-96093,6250,2343,2041,-54,44,-30
26941,-96093,6250,2343,2040,-54,44,-30
26943,-96093,6250,2343,2040,-54,44,-30
26944,-96875,6250,3906,2043,-54,43,-30
26946,-96875,6250,3906,2048,-54,43,-30
26947,-96875,6250,3906,2046,-53,43,-30
26949,-96875,6250,3906,2037,-53,43,-30
26950,-96875,6250,3906,2051,-53,43,-30
26952,-96875,6250,3906,2051,-53,43,-30
26953,-96875,6250,3906,2043,-52,43,-30
26955,-96875,7031,0,2037,-52,43,-30
26956,-96875,7031,0,2040,-52,43,-30
26958,-96875,7031,0,2043,-52,43,-30
26959,-96875,7031,0,2046,-52,43,-30
26961,-96875,7031,0,2049,-51,43,-30
26962,-96875,7031,0,2051,-51,44,-30
26963,-96875,7031,0,2051,-51,44,-29
26965,-97656,6250,3125,2041,-51,44,-29
26967,-97656,6250,3125,2049,-51,44,-29
26968,-97656,6250,3125,2041,-51,44,-30
26970,-97656,6250,3125,2041,-51,44,-30
26971,-97656,6250,3125,2042,-51,44,-30
26973,-97656,6250,3125,2037,-50,44,-29
26974,-97656,6250,3125,2037,-50,44,-29
26976,-96093,7031,2343,2033,-50,44,-29
26977,-96093,7031,2343,2043,-50,44,-29
26978,-96093,7031,2343,2037,-49,44,-29
26980,-96093,7031,2343,2037,-49,44,-29
26981,-96093,7031,2343,2046,-49,44,-29
26984,-96093,7031,2343,2051,-49,44,-29
26986,-96093,6250,1562,2043,-48,44,-29
26987,-96093,6250,1562,2043,-48,44,-29
26989,-96093,6250,1562,2047,-48,44,-29
26990,-96093,6250,1562,2042,-48,44,-29
26992,-96093,6250,1562,2049,-48,44,-29
26993,-96093,6250,1562,2051,-48,44,-29
26995,-96875,7031,3125,2038,-48,44,-29
26996,-96875,7031,3125,2042,-47,44,-29
26998,-96875,7031,3125,2046,-47,44,-29
26999,-96875,7031,3125,2040,-47,44,-29
27001,-96875,7031,3125,2051,-47,44,-29
27002,-96875,7031,3125,2036,-46,44,-29
27004,-96875,7031,3125,2045,-46,44,-29
27005,-96875,7031,1562,2038,-46,44,-29
27007,-96875,7031,1562,2047,-46,43,-29
27008,-96875,7031,1562,2049,-46,44,-29
27010,-96875,7031,1562,2051,-46,44,-29
27011,-96875,7031,1562,2052,-46,44,-29
27013,-96875,7031,1562,2045,-45,44,-29
27014,-96875,7031,1562,2041,-45,44,-29
27016,-96093,6250,2343,2041,-45,44,-29
27018,-96093,6250,2343,2043,-45,44,-29
27020,-96093,6250,2343,2041,-45,44,-29
27022,-96093,6250,2343,2042,-44,44,-29
27024,-96093,6250,2343,2045,-44,43,-29
27026,-95312,7031,781,2041,-44,43,-29
27028,-95312,7031,781,2038,-43,43,-29
27030,-95312,7031,781,2045,-43,43,-30
27032,-95312,7031,781,2051,-43,43,-30
27034,-95312,7031,781,2046,-43,43,-30
27036,-96875,7031,2343,2049,-42,43,-29
27038,-96875,7031,2343,2037,-42,43,-29
27040,-96875,7031,2343,2035,-42,43,-29
27042,-96875,7031,2343,2041,-42,43,-29
27044,-96875,7031,2343,2036,-41,43,-29
27046,-96093,6250,3906,2046,-41,43,-30
27049,-96093,6250,3906,2051,-41,43,-30
27050,-96093,6250,3906,2038,-41,43,-30
27052,-96093,6250,3906,2041,-41,43,-30
27054,-96093,6250,3906,2038,-40,42,-30
27056,-96093,7031,2343,2043,-40,42,-30
27058,-96093,7031,2343,2042,-40,43,-30
27060,-96093,7031,2343,2043,-40,43,-30
27062,-96093,7031,2343,2038,-39,43,-30
27064,-96093,7031,2343,2033,-39,42,-30
27066,-96093,5468,3125,2040,-39,42,-30
27068,-96093,5468,3125,2045,-39,42,-30
27070,-96093,5468,3125,2030,-39,42,-30
27072,-96093,5468,3125,2031,-39,42,-30
27074,-96093,5468,3125,2041,-39,42,-30
27076,-96093,7031,2343,2037,-39,42,-30
27078,-96093,7031,2343,2038,-38,43,-30
27080,-96093,7031,2343,2041,-38,43,-30
27082,-96093,7031,2343,2041,-38,43,-30
27084,-96093,7031,2343,2046,-38,43,-30
27086,-96875,7031,2343,2042,-37,43,-30
27088,-96875,7031,2343,2045,-37,43,-29
27090,-96875,7031,2343,2043,-37,43,-29
27092,-96875,7031,2343,2049,-36,43,-29
27094,-96875,7031,2343,2033,-36,43,-29
27096,-96093,7031,781,2035,-36,43,-29
27098,-96093,7031,781,2041,-36,43,-29
27100,-96093,7031,781,2038,-35,43,-29
27102,-96093,7031,781,2045,-35,43,-29
27104,-96093,7031,781,2041,-35,43,-29
27106,-96093,7031,2343,2038,-35,43,-29
27108,-96093,7031,2343,2031,-35,43,-29
27110,-96093,7031,2343,2031,-34,43,-29
27112,-96093,7031,2343,2036,-34,43,-29
27114,-96093,7031,2343,2041,-34,43,-29
27116,-96875,7812,781,2037,-34,43,-29
27119,-96875,7812,781,2042,-33,43,-29
27120,-96875,7812,781,2046,-33,43,-29
27122,-96875,7812,781,2033,-33,43,-29
27124,-96875,7812,781,2038,-33,43,-29
27126,-96875,7812,781,2046,-33,43,-29
27128,-96875,7812,781,2051,-33,42,-29
27130,-96875,7812,781,2046,-32,42,-29
27132,-96875,7812,781,2046,-32,42,-29
27134,-96875,7812,781,2043,-32,42,-29
27136,-96875,7812,781,2036,-32,42,-29
27138,-96875,7031,2343,2036,-31,42,-29
27140,-96875,7031,2343,2038,-31,42,-29
27142,-96875,7031,2343,2036,-31,42,-29
27144,-96875,7031,2343,2040,-31,42,-29
27146,-96875,7031,2343,2042,-31,42,-29
27148,-96875,7812,0,2045,-31,42,-29
27150,-96875,7812,0,2041,-30,42,-29
27152,-96875,7812,0,2040,-30,42,-29
27154,-96875,7812,0,2035,-30,42,-29
27156,-96875,7812,0,2036,-30,42,-28
27158,-96875,7031,781,2036,-30,42,-28
27160,-96875,7031,781,2036,-29,42,-28
27162,-96875,7031,781,2046,-29,42,-28
27164,-96875,7031,781,2040,-29,41,-28
27166,-96875,7031,781,2033,-29,41,-28
27168,-96875,8593,781,2040,-29,41,-28
27170,-96875,8593,781,2035,-29,41,-28
27172,-96875,8593,781,2041,-29,41,-28
27174,-96875,8593,781,2038,-28,41,-28
27176,-96875,8593,781,2043,-28,41,-28
27178,-97656,7031,0,2043,-28,40,-28
27180,-97656,7031,0,2037,-28,41,-28
27182,-97656,7031,0,2046,-28,40,-28
27184,-97656,7031,0,2043,-28,40,-28
27187,-97656,7031,0,2046,-28,40,-28
27188,-97656,7031,781,2045,-28,40,-28
27190,-97656,7031,781,2045,-28,40,-28
27192,-97656,7031,781,2042,-27,40,-28
27194,-97656,7031,781,2041,-27,40,-28
27196,-97656,7031,781,2040,-27,40,-28
27198,-97656,6250,781,2033,-27,40,-28
27200,-97656,6250,781,2041,-27,40,-28
27202,-97656,6250,781,2032,-27,40,-28
27204,-97656,6250,781,2040,-27,40,-28
27206,-97656,6250,781,2045,-26,40,-28
27208,-96875,7031,0,2046,-26,40,-28
27210,-96875,7031,0,2043,-26,40,-29
27212,-96875,7031,0,2051,-26,40,-29
27214,-96875,7031,0,2038,-26,40,-29
27216,-96875,7031,0,2048,-26,40,-29
27218,-96875,7031,-781,2041,-26,40,-29
27220,-96875,7031,-781,2037,-26,40,-29
27222,-96875,7031,-781,2041,-26,40,-29
27224,-96875,7031,-781,2040,-26,40,-29
27226,-96875,7031,-781,2038,-25,40,-29
27228,-98437,7812,781,2043,-25,40,-29
27230,-98437,7812,781,2035,-25,40,-29
27232,-98437,7812,781,2049,-25,40,-29
27234,-98437,7812,781,2038,-25,40,-29
27236,-98437,7812,781,2040,-25,40,-29
27238,-97656,7812,781,2048,-25,40,-29
27240,-97656,7812,781,2053,-25,39,-29
27242,-97656,7812,781,2047,-25,39,-29
27244,-97656,7812,781,2043,-25,39,-29
27246,-97656,7812,781,2031,-25,39,-29
27248,-98437,7031,781,2048,-24,39,-29
27250,-98437,7031,781,2053,-24,39,-29
27252,-98437,7031,781,2038,-24,38,-29
27254,-98437,7031,781,2038,-24,38,-29
27256,-98437,7031,781,2040,-24,38,-29
27258,-98437,8593,-781,2041,-24,38,-29
27260,-98437,8593,-781,2045,-24,38,-29
27262,-98437,8593,-781,2045,-23,38,-29
27264,-98437,8593,-781,2038,-23,38,-29
27266,-98437,8593,-781,2041,-23,38,-29
27268,-97656,7031,0,2048,-23,38,-29
27270,-97656,7031,0,2041,-23,37,-28
27272,-97656,7031,0,2041,-23,37,-29
27274,-97656,7031,0,2047,-23,37,-29
27276,-97656,7031,0,2043,-23,37,-29
27278,-98437,7812,-781,2047,-23,37,-29
27280,-98437,7812,-781,2041,-23,37,-29
27282,-98437,7812,-781,2033,-23,37,-29
27284,-98437,7812,-781,2031,-23,37,-29
27286,-98437,7812,-781,2040,-23,37,-29
27288,-98437,7812,-1562,2046,-23,36,-29
27290,-98437,7812,-1562,2031,-23,36,-29
27292,-98437,7812,-1562,2041,-23,36,-29
27294,-98437,7812,-1562,2041,-23,36,-29
27296,-98437,7812,-1562,2037,-23,36,-29
27298,-98437,7031,-781,2042,-23,36,-29
27300,-98437,7031,-781,2035,-22,36,-29
27302,-98437,7031,-781,2049,-23,36,-29
27304,-98437,7031,-781,2040,-23,36,-29
27306,-98437,7031,-781,2046,-22,37,-29
27308,-98437,7031,-781,2047,-22,36,-29
27310,-98437,7031,-781,2042,-22,36,-29
27312,-98437,7031,-781,2040,-22,36,-29
27315,-98437,7031,-781,2042,-22,36,-29
27316,-98437,7031,-781,2038,-22,36,-29
27318,-98437,7031,-781,2043,-22,36,-29
27320,-99218,7812,-781,2036,-22,36,-29
27322,-99218,7812,-781,2045,-22,36,-29
27324,-99218,7812,-781,2057,-22,36,-29
27326,-99218,7812,-781,2040,-22,36,-29
27328,-99218,7812,-781,2037,-22,36,-29
27330,-98437,7812,781,2047,-22,37,-29
27332,-98437,7812,781,2040,-22,37,-29
27334,-98437,7812,781,2045,-22,36,-29
27336,-98437,7812,781,2035,-22,36,-29
27338,-98437,7812,781,2045,-22,36,-30
27340,-99218,7812,-3125,2042,-22,36,-30
27342,-99218,7812,-3125,2042,-22,36,-30
27344,-99218,7812,-3125,2042,-22,37,-30
27346,-99218,7812,-3125,2035,-22,37,-30
27348,-99218,7812,-3125,2036,-22,37,-30
27350,-100781,8593,0,2037,-22,36,-30
27352,-100781,8593,0,2047,-22,36,-30
27354,-100781,8593,0,2042,-22,36,-30
27356,-100781,8593,0,2051,-22,36,-30
27358,-100781,8593,0,2040,-22,36,-30
27360,-99218,7812,-781,2037,-22,36,-30
27362,-99218,7812,-781,2041,-22,36,-30
27364,-99218,7812,-781,2043,-22,36,-30
27366,-99218,7812,-781,2041,-22,36,-30
27368,-99218,7812,-781,2047,-22,36,-30
27370,-99218,7812,-1562,2032,-22,35,-30
27372,-99218,7812,-1562,2042,-22,35,-30
27374,-99218,7812,-1562,2046,-22,35,-30
27376,-99218,7812,-1562,2038,-22,35,-30
27378,-99218,7812,-1562,2031,-22,35,-30
27380,-100000,8593,-781,2033,-22,34,-30
27382,-100000,8593,-781,2038,-22,34,-30
27384,-100000,8593,-781,2041,-22,34,-30
27386,-100000,8593,-781,2036,-22,34,-30
27388,-100000,8593,-781,2041,-23,34,-30
27390,-100000,8593,-1562,2046,-23,33,-30
27392,-100000,8593,-1562,2046,-23,33,-30
27394,-100000,8593,-1562,2045,-23,33,-30
27396,-100000,8593,-1562,2031,-23,33,-30
27398,-100000,8593,-1562,2042,-23,33,-30
27400,-100000,7812,-1562,2045,-23,33,-30
27402,-100000,7812,-1562,2032,-23,32,-30
27404,-100000,7812,-1562,2031,-23,32,-30
27406,-100000,7812,-1562,2032,-23,32,-30
27408,-100000,7812,-1562,2041,-23,32,-30
27410,-100000,7812,-2343,2036,-23,32,-30
27412,-100000,7812,-2343,2041,-24,31,-30
27414,-100000,7812,-2343,2041,-24,31,-30
27416,-100000,7812,-2343,2041,-24,31,-30
27418,-100000,7812,-2343,2042,-24,31,-29
27420,-100000,7812,-1562,2041,-24,31,-29
27422,-100000,7812,-1562,2035,-24,31,-30
27424,-100000,7812,-1562,2049,-25,31,-29
27426,-100000,7812,-1562,2033,-25,31,-29
27428,-100000,7812,-1562,2032,-25,31,-29
27430,-100000,7812,-1562,2045,-25,31,-30
27432,-100000,7812,-1562,2036,-25,31,-30
27434,-100000,7812,-1562,2043,-25,31,-30
27436,-100000,7812,-1562,2035,-25,31,-29
27438,-100000,7812,-1562,2043,-25,31,-30
27440,-100781,8593,-2343,2038,-25,31,-30
27442,-100781,8593,-2343,2033,-25,31,-30
27444,-100781,8593,-2343,2045,-25,31,-30
27446,-100781,8593,-2343,2047,-26,31,-30
27448,-100781,8593,-2343,2042,-26,31,-30
27450,-99218,7812,-2343,2047,-26,31,-30
27452,-99218,7812,-2343,2041,-26,31,-30
27454,-99218,7812,-2343,2037,-26,31,-30
27456,-99218,7812,-2343,2040,-26,31,-29
27458,-99218,7812,-2343,2041,-26,31,-29
27516,-100781,7812,-3125,2041,-31,30,-31
27518,-100781,7812,-3125,2032,-31,29,-31
27519,-100781,7812,-3125,2036,-31,29,-31
27521,-100781,7812,-3125,2041,-31,29,-31
27522,-101562,8593,-3125,2033,-31,29,-31
27524,-101562,8593,-3125,2031,-32,29,-31
27525,-101562,8593,-3125,2040,-32,29,-31
27527,-101562,8593,-3125,2037,-32,29,-31
27528,-101562,8593,-3125,2040,-32,29,-31
27530,-101562,8593,-3125,2040,-32,29,-31
27531,-100781,7812,-3125,2041,-32,29,-31
27532,-100781,7812,-3125,2043,-32,28,-31
27534,-100781,7812,-3125,2043,-32,28,-31
27535,-100781,7812,-3125,2038,-33,28,-31
27537,-100781,7812,-3125,2038,-33,28,-31
27538,-100781,7812,-3125,2033,-33,28,-31
27540,-100781,7812,-3125,2027,-33,28,-31
27542,-100781,6250,-3125,2040,-33,27,-31
27543,-100781,6250,-3125,2045,-33,27,-31
27545,-100781,6250,-3125,2042,-33,27,-31
27546,-100781,6250,-3125,2033,-33,28,-31
27548,-100781,6250,-3125,2037,-34,27,-31
27549,-100781,6250,-3125,2036,-34,27,-31
27551,-100781,6250,-3125,2032,-34,27,-32
27552,-101562,8593,-3125,2041,-34,27,-32
27553,-101562,8593,-3125,2041,-34,27,-32
27555,-101562,8593,-3125,2035,-34,27,-32
27556,-101562,8593,-3125,2041,-35,27,-32
27558,-101562,8593,-3125,2037,-35,27,-32
27559,-101562,8593,-3125,2031,-35,27,-32
27561,-101562,8593,-3125,2037,-35,27,-32
27562,-102343,8593,-3125,2036,-35,27,-32
27564,-102343,8593,-3125,2045,-35,27,-32
27565,-102343,8593,-3125,2052,-35,27,-32
27567,-102343,8593,-3125,2033,-35,27,-32
27570,-102343,8593,-3125,2042,-36,27,-32
27572,-101562,7812,-3906,2047,-36,27,-32
27573,-101562,7812,-3906,2046,-36,27,-32
27575,-101562,7812,-3906,2043,-36,27,-32
27576,-101562,7812,-3906,2047,-36,27,-32
27578,-101562,7812,-3906,2051,-36,27,-32
27579,-101562,7812,-3906,2041,-37,27,-32
27581,-101562,7812,-3906,2033,-37,27,-32
27582,-101562,8593,-3906,2037,-37,27,-32
27584,-101562,8593,-3906,2035,-37,27,-32
27585,-101562,8593,-3906,2032,-38,27,-32
27587,-101562,8593,-3906,2046,-38,27,-32
27588,-101562,8593,-3906,2033,-38,27,-32
27590,-101562,8593,-3906,2046,-38,27,-32
27591,-101562,8593,-3906,2047,-38,27,-32
27593,-101562,7031,-3125,2035,-38,27,-32
27594,-101562,7031,-3125,2032,-39,27,-32
27596,-101562,7031,-3125,2040,-39,27,-32
27597,-101562,7031,-3125,2037,-39,27,-32
27599,-101562,7031,-3125,2038,-39,28,-32
27600,-101562,7031,-3125,2049,-39,28,-32
27602,-101562,7031,-3125,2038,-40,28,-32
27603,-101562,6250,-2343,2048,-40,28,-32
27605,-101562,6250,-2343,2036,-40,28,-32
27606,-101562,6250,-2343,2040,-40,28,-32
27608,-101562,6250,-2343,2035,-40,28,-32
27609,-101562,6250,-2343,2041,-40,28,-32
27611,-101562,6250,-2343,2032,-40,28,-32
27612,-101562,7812,-3125,2031,-40,28,-32
27614,-101562,7812,-3125,2041,-41,28,-32
27615,-101562,7812,-3125,2031,-41,28,-32
27617,-101562,7812,-3125,2041,-41,28,-32
27618,-101562,7812,-3125,2038,-41,28,-32
27620,-101562,7812,-3125,2032,-41,27,-32
27621,-101562,7812,-3125,2040,-42,27,-32
27623,-103125,10156,-3906,2047,-42,27,-32
27640,-102343,8593,-3125,2037,-44,26,-32
27642,-102343,8593,-3125,2041,-44,26,-32
27643,-101562,8593,-3125,2038,-44,26,-32
27645,-101562,8593,-3125,2048,-45,26,-32
27646,-101562,8593,-3125,2048,-45,26,-32
27648,-101562,8593,-3125,2036,-45,26,-32
27649,-101562,8593,-3125,2035,-45,26,-32
27651,-101562,8593,-3125,2045,-45,26,-32
27652,-101562,8593,-3125,2049,-45,26,-32
27654,-101562,7812,-3906,2045,-45,26,-32
27655,-101562,7812,-3906,2047,-46,26,-32
27657,-101562,7812,-3906,2047,-46,26,-32
27658,-101562,7812,-3906,2041,-46,26,-32
27660,-101562,7812,-3906,2045,-46,26,-32
27661,-101562,7812,-3906,2038,-46,26,-32
27663,-101562,7031,-3125,2033,-46,26,-32
27664,-101562,7031,-3125,2046,-47,26,-32
27666,-101562,7031,-3125,2035,-47,26,-32
27667,-101562,7031,-3125,2041,-47,26,-32
27669,-101562,7031,-3125,2045,-47,26,-32
27670,-101562,7031,-3125,2038,-47,26,-32
27672,-101562,7031,-3125,2045,-47,26,-32
27673,-101562,7031,-1562,2038,-48,26,-32
27675,-101562,7031,-1562,2042,-48,26,-32
27676,-101562,7031,-1562,2040,-48,26,-32
27678,-101562,7031,-1562,2052,-48,26,-32
27679,-101562,7031,-1562,2041,-48,26,-32
27681,-101562,7031,-1562,2043,-48,26,-32
27682,-101562,7031,-1562,2040,-48,26,-32
27684,-101562,7031,-781,2051,-48,26,-32
27685,-101562,7031,-781,2033,-49,26,-32
27686,-101562,7031,-781,2043,-49,26,-32
27688,-101562,7031,-781,2041,-49,26,-32
27689,-101562,7031,-781,2038,-49,27,-32
27691,-101562,7031,-781,2049,-49,27,-32
27693,-101562,7031,-781,2041,-49,27,-32
27696,-102343,7031,-3906,2047,-49,27,-32
27697,-102343,7031,-3906,2049,-50,27,-32
27699,-102343,7031,-3906,2043,-50,27,-32
27700,-102343,7031,-3906,2048,-50,27,-32
27702,-102343,7031,-3906,2041,-50,28,-32
27703,-102343,7812,-2343,2045,-51,28,-32
27705,-102343,7812,-2343,2046,-51,28,-32
27706,-102343,7812,-2343,2040,-51,28,-32
27708,-102343,7812,-2343,2036,-51,28,-32
27709,-102343,7812,-2343,2043,-51,28,-32
27711,-102343,7812,-2343,2046,-51,28,-32
27712,-102343,7812,-2343,2041,-52,28,-32
27714,-102343,7812,-2343,2041,-52,28,-32
27716,-102343,7812,-2343,2037,-52,28,-32
27717,-102343,7812,-2343,2051,-52,28,-32
27719,-102343,7812,-2343,2038,-52,28,-32
27720,-102343,7812,-2343,2041,-53,28,-32
27722,-102343,7812,-2343,2042,-53,28,-32
27723,-102343,7812,-2343,2042,-53,28,-32
27725,-102343,7031,-3125,2047,-53,28,-32
27726,-102343,7031,-3125,2042,-54,28,-32
27728,-102343,7031,-3125,2041,-54,28,-32
27729,-102343,7031,-3125,2041,-54,28,-32
27730,-102343,7031,-3125,2033,-54,28,-32
27732,-102343,7031,-3125,2036,-54,28,-32
27733,-103125,7812,-2343,2047,-54,28,-32
27735,-103125,7812,-2343,2038,-55,28,-33
27736,-103125,7812,-2343,2036,-54,28,-32
27738,-103125,7812,-2343,2037,-55,28,-32
27739,-103125,7812,-2343,2048,-55,28,-32
27741,-103125,7812,-2343,2037,-55,28,-32
27742,-103125,7812,-2343,2041,-55,27,-32
27744,-101562,7031,-2343,2038,-56,27,-32
27745,-101562,7031,-2343,2041,-56,27,-32
27747,-101562,7031,-2343,2042,-56,28,-32
27765,-101562,7812,-2343,2040,-57,27,-32
27767,-101562,7812,-2343,2036,-57,27,-32
27768,-101562,7812,-2343,2046,-58,27,-32
27770,-101562,7812,-2343,2035,-58,27,-32
27771,-101562,7812,-2343,2031,-58,27,-32
27773,-101562,7812,-2343,2032,-58,26,-32
27774,-103125,9375,-1562,2038,-58,26,-32
27776,-103125,9375,-1562,2040,-58,26,-32
27777,-103125,9375,-1562,2033,-58,26,-32
27779,-103125,9375,-1562,2032,-59,26,-32
27780,-103125,9375,-1562,2036,-59,26,-32
27782,-103125,9375,-1562,2041,-59,26,-32
27783,-103125,9375,-1562,2042,-59,26,-33
27785,-101562,7812,-3125,2049,-59,26,-33
27786,-101562,7812,-3125,2040,-59,26,-33
27788,-101562,7812,-3125,2048,-59,26,-33
27789,-101562,7812,-3125,2049,-59,26,-32
27791,-101562,7812,-3125,2042,-60,26,-32
27792,-101562,7812,-3125,2037,-60,26,-32
27794,-101562,7812,-3125,2043,-60,26,-32
27795,-103125,8593,-1562,2040,-60,26,-32
27797,-103125,8593,-1562,2041,-60,25,-32
27798,-103125,8593,-1562,2048,-60,25,-32
27800,-103125,8593,-1562,2049,-60,25,-32
27801,-103125,8593,-1562,2051,-60,25,-32
27803,-103125,8593,-1562,2043,-61,26,-32
27804,-102343,7031,-1562,2046,-61,26,-33
27806,-102343,7031,-1562,2041,-61,26,-33
27807,-102343,7031,-1562,2031,-61,26,-32
27809,-102343,7031,-1562,2045,-61,26,-32
27810,-102343,7031,-1562,2036,-61,26,-33
27812,-102343,7031,-1562,2042,-61,26,-33
27813,-102343,7031,-1562,2033,-62,26,-33
27815,-101562,7031,-1562,2040,-62,26,-33
27816,-101562,7031,-1562,2036,-62,26,-33
27818,-101562,7031,-1562,2047,-62,26,-33
27821,-101562,7031,-1562,2035,-63,26,-33
27823,-101562,7031,-1562,2049,-63,27,-33
27824,-101562,7031,-1562,2038,-63,27,-33
27826,-101562,7031,-1562,2045,-63,27,-33
27827,-101562,7031,-1562,2038,-63,27,-33
27829,-101562,7031,-1562,2042,-63,27,-33
27830,-101562,7031,-1562,2048,-63,27,-33
27832,-101562,7031,-1562,2052,-63,27,-33
27833,-101562,7031,-1562,2041,-64,27,-33
27835,-102343,7812,-2343,2033,-64,27,-33
27836,-102343,7812,-2343,2048,-64,27,-33
27838,-102343,7812,-2343,2047,-64,28,-33
27840,-102343,7812,-2343,2046,-64,28,-33
27842,-102343,7812,-2343,2049,-65,28,-33
27844,-102343,7812,-2343,2036,-65,28,-33
27846,-101562,8593,-3125,2047,-65,28,-33
27848,-101562,8593,-3125,2036,-65,29,-33
27850,-101562,8593,-3125,2033,-65,29,-33
27852,-101562,8593,-3125,2041,-65,29,-33
27854,-101562,8593,-3125,2046,-65,29,-33
27856,-100781,7812,-1562,2041,-65,29,-33
27858,-100781,7812,-1562,2041,-66,29,-33
27860,-100781,7812,-1562,2036,-66,29,-33
27862,-100781,7812,-1562,2051,-66,29,-33
27864,-100781,7812,-1562,2035,-66,29,-33
27866,-101562,8593,-1562,2043,-66,30,-33
27868,-101562,8593,-1562,2041,-67,30,-33
27870,-101562,8593,-1562,2051,-67,30,-33
27872,-101562,8593,-1562,2041,-67,30,-33
27874,-101562,8593,-1562,2041,-67,30,-33
27876,-101562,7812,-2343,2040,-67,30,-33
27878,-101562,7812,-2343,2043,-67,30,-33
27880,-101562,7812,-2343,2035,-67,29,-33
27882,-101562,7812,-2343,2045,-68,29,-33
27884,-101562,7812,-2343,2037,-68,29,-33
27886,-100781,9375,-781,2038,-68,29,-33
27904,-101562,8593,-1562,2032,-69,28,-32
27905,-101562,7812,-1562,2040,-69,28,-32
27907,-101562,7812,-1562,2045,-69,28,-32
27908,-101562,7812,-1562,2035,-69,28,-32
27910,-101562,7812,-1562,2036,-69,28,-32
27911,-101562,7812,-1562,2043,-69,28,-32
27913,-101562,7812,-1562,2042,-69,28,-32
27914,-101562,7812,-1562,2036,-70,28,-32
27916,-101562,8593,-781,2045,-70,28,-32
27917,-101562,8593,-781,2040,-70,28,-32
27919,-101562,8593,-781,2041,-70,28,-32
27920,-101562,8593,-781,2043,-70,28,-32
27922,-101562,8593,-781,2031,-70,28,-32
27923,-101562,8593,-781,2046,-70,28,-32
27925,-101562,8593,-781,2043,-70,28,-32
27926,-100781,7031,-1562,2035,-70,28,-32
27928,-100781,7031,-1562,2033,-70,28,-32
27929,-100781,7031,-1562,2027,-70,28,-32
27931,-100781,7031,-1562,2049,-70,28,-32
27932,-100781,7031,-1562,2048,-71,28,-32
27934,-100781,7031,-1562,2033,-71,28,-32
27935,-100781,7031,-1562,2031,-71,28,-32
27937,-100781,7812,-1562,2031,-71,28,-32
27938,-100781,7812,-1562,2046,-71,28,-32
27940,-100781,7812,-1562,2031,-71,28,-32
27941,-100781,7812,-1562,2035,-71,28,-32
27943,-100781,7812,-1562,2028,-71,29,-32
27944,-100781,7812,-1562,2031,-71,29,-32
27946,-100781,7031,-781,2049,-71,29,-32
27947,-100781,7031,-781,2033,-71,29,-32
27949,-100781,7031,-781,2035,-71,29,-32
27950,-100781,7031,-781,2037,-71,29,-31
27952,-100781,7031,-781,2036,-72,29,-31
27954,-100781,7031,-781,2040,-72,29,-31
27957,-100781,7812,-781,2043,-72,30,-31
27958,-100781,7812,-781,2052,-72,30,-32
27960,-100781,7812,-781,2042,-72,30,-32
27962,-100781,7812,-781,2036,-72,30,-31
27964,-100781,7812,-781,2040,-72,30,-31
27966,-100781,8593,-2343,2035,-72,31,-31
27968,-100781,8593,-2343,2040,-72,31,-31
27970,-100781,8593,-2343,2042,-72,31,-31
27972,-100781,8593,-2343,2042,-72,31,-31
27974,-100781,8593,-2343,2041,-72,31,-31
27976,-100781,8593,-781,2036,-73,31,-31
27978,-100781,8593,-781,2033,-73,31,-31
27980,-100781,8593,-781,2041,-73,32,-31
27982,-100781,8593,-781,2041,-73,32,-31
27984,-100781,8593,-781,2040,-73,32,-31
27986,-100781,7812,-781,2030,-73,32,-31
27988,-100781,7812,-781,2038,-73,32,-31
27990,-100781,7812,-781,2041,-73,32,-31
27992,-100781,7812,-781,2045,-73,32,-31
27994,-100781,7812,-781,2036,-73,32,-31
27996,-100781,7812,-781,2033,-73,32,-31
27998,-100781,7812,-781,2046,-73,33,-31
28000,-100781,7812,-781,2031,-73,33,-31
28002,-100781,7812,-781,2036,-73,33,-31
28004,-100781,7812,-781,2041,-74,32,-31
28006,-100781,7812,-781,2035,-74,32,-31
28008,-100781,7812,0,2041,-74,33,-31
28010,-100781,7812,0,2040,-74,33,-31
28012,-100781,7812,0,2036,-74,32,-30
28014,-100781,7812,0,2043,-74,33,-30
28017,-100781,7812,-781,2048,-74,32,-30
28018,-100781,7812,-781,2042,-74,32,-30
28020,-100781,7812,-781,2041,-74,32,-30
28022,-100781,7812,-781,2040,-74,32,-30
28024,-100781,7812,-781,2046,-74,32,-30
28026,-100781,7812,-781,2037,-74,32,-30
28028,-99218,7031,-781,2032,-74,32,-30
28030,-99218,7031,-781,2030,-74,32,-30
28032,-99218,7031,-781,2036,-74,32,-30
28034,-99218,7031,-781,2038,-74,32,-30
28036,-99218,7031,-781,2036,-74,32,-30
28038,-100781,8593,-1562,2049,-74,32,-30
28040,-100781,8593,-1562,2040,-74,32,-30
28042,-100781,8593,-1562,2036,-74,32,-30
28044,-100781,8593,-1562,2041,-74,31,-30
28046,-100781,8593,-1562,2033,-74,31,-30
28048,-100781,7031,0,2028,-74,31,-30
28050,-100781,7031,0,2041,-75,31,-30
28052,-100781,7031,0,2041,-75,31,-29
28054,-100781,7031,0,2031,-75,31,-29
28056,-100781,7031,0,2031,-75,31,-29
28058,-100781,9375,-781,2038,-74,31,-29
28060,-100781,9375,-781,2048,-74,32,-29
28062,-100781,9375,-781,2042,-75,32,-29
28064,-100781,9375,-781,2031,-74,32,-29
28066,-100781,9375,-781,2043,-74,32,-29
28068,-100000,7031,0,2033,-74,32,-30
28070,-100000,7031,0,2045,-74,32,-30
28072,-100000,7031,0,2041,-74,31,-30
28074,-100000,7031,0,2036,-74,31,-30
28076,-100000,7031,0,2035,-74,32,-30
28078,-100781,7031,-781,2041,-74,32,-30
28080,-100781,7031,-781,2043,-74,32,-30
28082,-100781,7031,-781,2037,-74,32,-30
28084,-100781,7031,-781,2035,-74,32,-30
28086,-100781,7031,-781,2032,-74,32,-30
28088,-100000,7031,0,2042,-74,32,-30
28090,-100000,7031,0,2037,-74,32,-30
28092,-100000,7031,0,2051,-74,32,-30
28094,-100000,7031,0,2038,-74,32,-30
28096,-100000,7031,0,2046,-74,33,-30
28098,-100781,7812,0,2032,-74,33,-30
28100,-100781,7812,0,2052,-74,33,-30
28102,-100781,7812,0,2036,-74,33,-30
28104,-100781,7812,0,2035,-74,33,-30
28106,-100781,7812,0,2041,-74,34,-30
28108,-100000,7812,-2343,2036,-74,34,-30
28110,-100000,7812,-2343,2043,-74,34,-30
28112,-100000,7812,-2343,2041,-74,34,-30
28114,-100000,7812,-2343,2031,-74,34,-30
28116,-100000,7812,-2343,2045,-74,34,-30
28118,-100000,7812,0,2038,-74,35,-30
28120,-100000,7812,0,2042,-74,35,-30
28122,-100000,7812,0,2038,-74,35,-30
28124,-100000,7812,0,2036,-74,35,-30
28126,-100000,7812,0,2036,-73,35,-30
28128,-100000,7031,781,2038,-73,35,-30
28130,-100000,7031,781,2036,-73,35,-30
28132,-100000,7031,781,2037,-73,35,-30
28134,-100000,7031,781,2033,-73,35,-30
28136,-100000,7031,781,2047,-73,35,-29
28138,-100000,7031,781,2046,-73,35,-29
28140,-100000,7031,781,2046,-73,35,-29
28142,-100000,7031,781,2038,-73,35,-29
28144,-100000,7031,781,2041,-73,34,-29
28146,-100000,7031,781,2041,-73,34,-29
28148,-99218,7812,781,2049,-73,34,-29
28150,-99218,7812,781,2036,-73,34,-29
28152,-99218,7812,781,2040,-73,34,-29
28154,-99218,7812,781,2045,-73,34,-29
28157,-99218,7812,781,2047,-72,34,-29
28158,-99218,7031,0,2051,-72,34,-29
28160,-99218,7031,0,2040,-72,34,-29
28162,-99218,7031,0,2031,-72,34,-29
28164,-99218,7031,0,2045,-72,34,-29
28166,-99218,7031,0,2045,-72,34,-29
28168,-99218,7031,0,2043,-72,34,-29
28170,-99218,7031,-781,2047,-72,34,-29
28172,-99218,7031,-781,2040,-72,34,-29
28174,-99218,7031,-781,2035,-72,34,-29
28176,-99218,7031,-781,2041,-72,34,-29
28178,-99218,7031,-781,2037,-72,34,-30
28180,-99218,7031,781,2046,-72,34,-30
28182,-99218,7031,781,2051,-72,33,-30
28184,-99218,7031,781,2040,-72,33,-30
28186,-99218,7031,781,2035,-72,33,-30
28188,-99218,7031,781,2046,-72,33,-29
28190,-99218,7031,3125,2046,-72,33,-29
28192,-99218,7031,3125,2041,-71,33,-29
28194,-99218,7031,3125,2051,-71,33,-29
28196,-99218,7031,3125,2042,-71,33,-29
28198,-99218,7031,3125,2041,-71,33,-29
28200,-99218,6250,0,2041,-71,33,-29
28202,-99218,6250,0,2045,-71,33,-29
28204,-99218,6250,0,2040,-71,33,-29
28206,-99218,6250,0,2033,-71,33,-29
28208,-99218,6250,0,2036,-70,33,-29
28210,-99218,6250,781,2033,-70,33,-29
28212,-99218,6250,781,2042,-70,34,-29
28214,-99218,6250,781,2048,-70,34,-29
28216,-99218,6250,781,2037,-70,34,-29
28218,-99218,6250,781,2036,-70,34,-29
28220,-99218,6250,1562,2045,-70,35,-29
28222,-99218,6250,1562,2049,-70,35,-29
28225,-99218,6250,1562,2045,-70,35,-29
28226,-99218,6250,1562,2048,-70,35,-29
28228,-99218,6250,1562,2031,-70,35,-29
28230,-100000,7031,781,2038,-70,35,-29
28232,-100000,7031,781,2035,-70,35,-29
28234,-100000,7031,781,2041,-70,36,-29
28236,-100000,7031,781,2038,-69,36,-29
28238,-100000,7031,781,2038,-69,36,-29
28240,-98437,7031,781,2049,-69,36,-29
28242,-98437,7031,781,2043,-69,36,-29
28244,-98437,7031,781,2045,-69,36,-29
28246,-98437,7031,781,2038,-69,36,-29
28248,-98437,7031,781,2035,-69,36,-30
28250,-98437,7031,1562,2031,-69,36,-30
28252,-98437,7031,1562,2043,-69,36,-30
28254,-98437,7031,1562,2043,-69,36,-30
28256,-98437,7031,1562,2051,-69,36,-30
28258,-98437,7031,1562,2037,-68,36,-30
28260,-99218,7031,1562,2041,-68,36,-30
28262,-99218,7031,1562,2051,-68,36,-30
28264,-99218,7031,1562,2046,-68,36,-30
28266,-99218,7031,1562,2048,-68,36,-30
28268,-99218,7031,1562,2037,-68,36,-30
28270,-99218,7812,781,2033,-68,36,-30
28272,-99218,7812,781,2032,-67,36,-30
28274,-99218,7812,781,2041,-67,36,-30
28276,-99218,7812,781,2040,-67,36,-30
28278,-99218,7812,781,2041,-67,35,-30
28280,-99218,7031,1562,2038,-67,35,-30
28282,-99218,7031,1562,2045,-67,35,-30
28284,-99218,7031,1562,2037,-67,35,-30
28286,-99218,7031,1562,2068,-66,35,-30
28288,-99218,7031,1562,2038,-66,35,-30
28291,-99218,7812,0,2043,-66,34,-30
28292,-99218,7812,0,2047,-66,34,-30
28294,-99218,7812,0,2036,-66,34,-30
28296,-99218,7812,0,2045,-66,34,-30
28298,-99218,7812,0,2041,-66,34,-30
28300,-98437,6250,1562,2047,-66,34,-30
28302,-98437,6250,1562,2033,-66,34,-30
28304,-98437,6250,1562,2045,-66,34,-30
28306,-98437,6250,1562,2040,-65,34,-30
28308,-98437,6250,1562,2041,-65,34,-30
28310,-100000,7812,781,2049,-65,34,-30
28312,-100000,7812,781,2036,-65,34,-30
28314,-100000,7812,781,2031,-65,34,-30
28316,-100000,7812,781,2040,-65,34,-30
28318,-100000,7812,781,2032,-64,34,-30
28320,-99218,6250,781,2031,-64,34,-30
28322,-99218,6250,781,2041,-64,34,-30
28324,-99218,6250,781,2049,-64,34,-30
28326,-99218,6250,781,2040,-64,34,-30
28328,-99218,6250,781,2045,-64,34,-30
28330,-99218,7812,0,2031,-64,34,-30
28332,-99218,7812,0,2031,-64,34,-30
28334,-99218,7812,0,2042,-64,34,-30
28336,-99218,7812,0,2042,-64,34,-30
28338,-99218,7812,0,2038,-64,34,-30
28340,-98437,6250,0,2040,-64,35,-30
28342,-98437,6250,0,2047,-64,35,-30
28344,-98437,6250,0,2045,-64,35,-30
28346,-98437,6250,0,2035,-64,35,-30
28348,-98437,6250,0,2042,-64,35,-30
28350,-98437,6250,0,2031,-63,35,-30
28352,-99218,7812,0,2042,-63,35,-30
28354,-99218,7812,0,2036,-63,35,-30
28356,-99218,7812,0,2056,-63,35,-30
28358,-99218,7812,0,2036,-63,35,-31
28361,-98437,7812,781,2043,-63,36,-31
28362,-98437,7812,781,2042,-63,36,-31
28364,-98437,7812,781,2040,-63,36,-31
28366,-98437,7812,781,2051,-62,36,-31
28368,-98437,7812,781,2040,-62,36,-31
28370,-98437,7812,781,2042,-62,36,-31
28372,-100000,8593,1562,2038,-62,36,-31
28374,-100000,8593,1562,2033,-62,36,-31
28376,-100000,8593,1562,2038,-62,36,-30
28378,-100000,8593,1562,2033,-62,36,-30
28380,-100000,8593,1562,2036,-61,36,-30
28382,-99218,8593,2343,2032,-61,36,-30
28384,-99218,8593,2343,2037,-61,36,-30
28386,-99218,8593,2343,2046,-61,35,-30
28388,-99218,8593,2343,2042,-60,35,-30
28390,-99218,8593,2343,2033,-60,35,-30
28392,-99218,7031,2343,2046,-60,35,-30
28394,-99218,7031,2343,2045,-60,35,-30
28396,-99218,7031,2343,2031,-60,35,-30
28398,-99218,7031,2343,2042,-60,35,-30
28400,-99218,7031,2343,2041,-60,34,-30
28402,-99218,7812,-781,2041,-60,34,-30
28404,-99218,7812,-781,2046,-60,34,-31
28406,-99218,7812,-781,2045,-59,34,-31
28408,-99218,7812,-781,2041,-59,34,-31
28410,-99218,7812,-781,2051,-59,34,-31
28412,-99218,7812,781,2042,-59,34,-31
28414,-99218,7812,781,2030,-59,34,-31
28416,-99218,7812,781,2046,-59,33,-31
28418,-99218,7812,781,2046,-59,33,-31
28420,-99218,7812,781,2042,-58,33,-31
28422,-98437,7031,781,2038,-58,33,-31
28424,-98437,7031,781,2038,-58,33,-30
28426,-98437,7031,781,2042,-58,33,-30
28429,-98437,7031,781,2037,-58,33,-30
28430,-98437,7031,781,2045,-58,32,-30
28432,-100000,7812,781,2041,-58,32,-30
28434,-100000,7812,781,2042,-58,32,-30
28436,-100000,7812,781,2040,-58,32,-30
28438,-100000,7812,781,2036,-58,32,-30
28440,-100000,7812,781,2040,-58,32,-30
28442,-99218,7031,1562,2041,-58,32,-31
28444,-99218,7031,1562,2033,-58,32,-31
28446,-99218,7031,1562,2031,-58,32,-30
28448,-99218,7031,1562,2031,-58,32,-30
28450,-99218,7031,1562,2048,-58,33,-30
28452,-98437,7031,0,2045,-57,33,-31
28454,-98437,7031,0,2038,-57,33,-31
28456,-98437,7031,0,2048,-57,33,-31
28458,-98437,7031,0,2038,-57,33,-31
28460,-98437,7031,0,2032,-57,33,-31
28462,-98437,7812,0,2035,-57,33,-31
28464,-98437,7812,0,2035,-56,33,-31
28466,-98437,7812,0,2041,-56,33,-31
28468,-98437,7812,0,2046,-56,33,-31
28470,-98437,7812,0,2035,-56,34,-31
28472,-98437,7031,781,2038,-56,34,-32
28474,-98437,7031,781,2047,-56,34,-32
28476,-98437,7031,781,2040,-56,34,-32
28478,-98437,7031,781,2040,-56,34,-32
28480,-98437,7031,781,2031,-55,34,-32
28482,-99218,7812,0,2031,-55,34,-32
28484,-99218,7812,0,2047,-55,35,-32
28486,-99218,7812,0,2041,-55,35,-32
28488,-99218,7812,0,2036,-55,35,-32
28490,-99218,7812,0,2032,-55,35,-32
28492,-99218,7812,781,2035,-55,35,-32
28494,-99218,7812,781,2043,-55,35,-32
28497,-99218,7812,781,2041,-54,35,-32
28498,-99218,7812,781,2040,-55,35,-32
28500,-99218,7812,781,2042,-54,35,-32
28502,-98437,7031,781,2037,-54,35,-32
28504,-98437,7031,781,2031,-54,35,-32
28506,-98437,7031,781,2038,-54,35,-32
28508,-98437,7031,781,2037,-54,35,-32
28510,-98437,7031,781,2033,-54,35,-32
28512,-98437,7812,0,2051,-54,35,-32
28514,-98437,7812,0,2048,-54,34,-32
28516,-98437,7812,0,2033,-53,34,-32
28518,-98437,7812,0,2040,-53,34,-32
28520,-98437,7812,0,2036,-53,34,-32
28522,-98437,7812,0,2027,-53,34,-32
28524,-100000,8593,1562,2037,-53,33,-32
28526,-100000,8593,1562,2041,-53,33,-32
28528,-100000,8593,1562,2045,-53,33,-32
28530,-100000,8593,1562,2041,-53,33,-32
28532,-100000,8593,1562,2051,-52,33,-32
28534,-99218,7812,0,2040,-52,33,-32
28536,-99218,7812,0,2038,-52,33,-32
28538,-99218,7812,0,2041,-52,33,-32
28540,-99218,7812,0,2046,-52,32,-32
28542,-99218,7812,0,2041,-52,32,-32
28544,-98437,7031,0,2038,-52,32,-32
28546,-98437,7031,0,2035,-52,32,-32
28548,-98437,7031,0,2045,-52,32,-32
28550,-98437,7031,0,2035,-51,32,-32
28552,-98437,7031,0,2031,-51,32,-32
28554,-97656,6250,0,2037,-51,32,-32
28556,-97656,6250,0,2036,-51,31,-32
28559,-97656,6250,0,2040,-51,31,-32
28560,-97656,6250,0,2048,-51,31,-32
28562,-97656,6250,0,2042,-51,31,-32
28564,-100000,7812,0,2031,-51,31,-32
28566,-100000,7812,0,2041,-51,31,-32
28568,-100000,7812,0,2048,-50,31,-32
28570,-100000,7812,0,2052,-50,31,-33
28572,-100000,7812,0,2040,-50,31,-33
28574,-99218,7031,0,2035,-50,31,-33
28576,-99218,7031,0,2042,-50,31,-33
28578,-99218,7031,0,2041,-50,31,-33
28580,-99218,7031,0,2033,-50,32,-33
28582,-99218,7031,0,2046,-50,32,-33
28584,-99218,7812,781,2046,-50,32,-32
28586,-99218,7812,781,2041,-50,32,-33
28588,-99218,7812,781,2036,-50,32,-33
28590,-99218,7812,781,2043,-49,32,-33
28592,-99218,7812,781,2042,-49,32,-33
28594,-99218,7031,0,2049,-49,32,-33
28596,-99218,7031,0,2041,-49,32,-33
28598,-99218,7031,0,2035,-49,33,-33
28600,-99218,7031,0,2036,-49,33,-33
28602,-99218,7031,0,2051,-49,33,-33
28604,-99218,7812,0,2045,-49,33,-33
28606,-99218,7812,0,2045,-49,33,-33
28608,-99218,7812,0,2036,-49,33,-33
28610,-99218,7812,0,2037,-49,33,-33
28612,-99218,7812,0,2037,-48,33,-33
28614,-99218,8593,0,2051,-48,33,-34
28616,-99218,8593,0,2037,-48,33,-34
28618,-99218,8593,0,2041,-48,33,-34
28621,-99218,8593,0,2042,-48,33,-34
28622,-99218,8593,0,2038,-48,33,-34
28624,-99218,7812,0,2040,-48,33,-34
28626,-99218,7812,0,2047,-48,33,-34
28628,-99218,7812,0,2047,-48,33,-34
28630,-99218,7812,0,2038,-48,33,-34
28632,-99218,7812,0,2042,-48,33,-34
28634,-100000,8593,781,2042,-48,33,-34
28636,-100000,8593,781,2036,-48,33,-34
28638,-100000,8593,781,2047,-48,33,-34
28640,-100000,8593,781,2046,-48,33,-34
28642,-100000,8593,781,2043,-48,32,-33
28644,-99218,7812,-781,2042,-48,32,-33
28646,-99218,7812,-781,2046,-48,32,-34
28648,-99218,7812,-781,2045,-48,32,-34
28650,-99218,7812,-781,2031,-48,32,-34
28652,-99218,7812,-781,2051,-48,32,-34
28654,-99218,8593,-781,2037,-48,32,-34
28656,-99218,8593,-781,2035,-48,31,-34
28658,-99218,8593,-781,2045,-48,31,-34
28660,-99218,8593,-781,2051,-48,31,-34
28662,-99218,8593,-781,2038,-47,31,-33
28664,-100000,7812,-781,2049,-47,30,-33
28666,-100000,7812,-781,2032,-47,30,-33
28668,-100000,7812,-781,2041,-47,30,-33
28670,-100000,7812,-781,2036,-47,30,-33
28672,-100000,7812,-781,2041,-47,30,-33
28674,-100000,7812,-781,2042,-47,30,-33
28676,-100000,7812,-781,2046,-47,30,-33
28678,-100000,7812,-781,2043,-46,30,-33
28680,-100000,7812,-781,2049,-46,30,-33
28682,-100000,7812,-781,2038,-46,30,-33
28684,-99218,7031,-1562,2036,-46,30,-33
28686,-99218,7031,-1562,2041,-46,29,-33
28688,-99218,7031,-1562,2031,-46,29,-34
28690,-99218,7031,-1562,2049,-46,29,-34
28693,-99218,7031,-1562,2036,-46,29,-34
28694,-99218,7031,-1562,2048,-46,29,-34
28696,-100000,7812,0,2042,-46,29,-34
28698,-100000,7812,0,2038,-46,29,-34
28700,-100000,7812,0,2035,-45,29,-34
28702,-100000,7812,0,2041,-46,29,-34
28704,-100000,7812,0,2038,-45,29,-34
28706,-99218,7031,0,2033,-45,29,-34
28708,-99218,7031,0,2043,-45,29,-34
28710,-99218,7031,0,2037,-45,29,-34
28712,-99218,7031,0,2041,-45,29,-34
28714,-99218,7031,0,2036,-45,29,-35
28716,-100000,7031,-781,2041,-46,29,-35
28718,-100000,7031,-781,2031,-46,29,-35
28720,-100000,7031,-781,2031,-46,29,-35
28722,-100000,7031,-781,2048,-45,30,-35
28724,-100000,7031,-781,2043,-46,30,-35
28726,-100000,8593,-781,2049,-46,30,-35
28728,-100000,8593,-781,2048,-46,30,-35
28730,-100000,8593,-781,2045,-46,30,-35
28732,-100000,8593,-781,2046,-46,30,-35
28734,-100000,8593,-781,2051,-46,31,-35
28736,-100000,8593,-781,2040,-46,31,-35
28738,-100000,8593,-781,2038,-45,31,-35
28740,-100000,8593,-781,2046,-45,31,-35
28742,-100000,8593,-781,2046,-45,31,-36
28744,-100000,8593,-781,2042,-45,31,-36
28746,-99218,8593,781,2045,-45,31,-36
28748,-99218,8593,781,2041,-45,31,-36
28750,-99218,8593,781,2040,-45,31,-36
28752,-99218,8593,781,2041,-45,31,-36
28754,-99218,8593,781,2035,-45,31,-36
28757,-100000,7812,-781,2035,-45,31,-36
28758,-100000,7812,-781,2043,-45,31,-36
28760,-100000,7812,-781,2038,-45,31,-36
28762,-100000,7812,-781,2048,-45,30,-36
28764,-100000,7812,-781,2045,-45,31,-36
28766,-100000,8593,-781,2045,-45,30,-36
28768,-100000,8593,-781,2047,-45,30,-36
28770,-100000,8593,-781,2038,-45,30,-36
28772,-100000,8593,-781,2047,-45,30,-36
28774,-100000,8593,-781,2052,-45,30,-36
28776,-100000,9375,-781,2041,-45,29,-36
28778,-100000,9375,-781,2038,-45,29,-36
28780,-100000,9375,-781,2047,-45,29,-37
28782,-100000,9375,-781,2041,-45,29,-36
28784,-100000,9375,-781,2045,-45,29,-36
28786,-100000,7812,-781,2041,-45,29,-36
28788,-100000,7812,-781,2054,-45,29,-36
28790,-100000,7812,-781,2047,-45,28,-36
28792,-100000,7812,-781,2033,-45,28,-36
28794,-100000,7812,-781,2036,-45,28,-36
28796,-100000,7812,-781,2033,-45,28,-36
28798,-100000,7812,-781,2037,-45,28,-36
28800,-100000,7812,-781,2048,-46,28,-36
28802,-100000,7812,-781,2041,-46,27,-36
28804,-100000,7812,-781,2038,-45,27,-36
28806,-101562,9375,-781,2045,-45,27,-36
28808,-101562,9375,-781,2041,-45,27,-36
28810,-101562,9375,-781,2046,-45,27,-36
28812,-101562,9375,-781,2031,-45,27,-36
28815,-101562,9375,-781,2045,-45,27,-36
28816,-100000,7812,-781,2038,-45,27,-36
28818,-100000,7812,-781,2036,-45,27,-35
28820,-100000,7812,-781,2049,-45,27,-36
28822,-100000,7812,-781,2048,-45,27,-36
28824,-100000,7812,-781,2051,-45,27,-36
28826,-100000,7812,-781,2047,-45,27,-36
28828,-100000,7812,-781,2041,-45,27,-36
28830,-100000,7812,-781,2043,-45,27,-36
28832,-100000,7812,-781,2032,-45,27,-36
28834,-100000,7812,-781,2046,-45,27,-36
28836,-100781,9375,-781,2033,-45,27,-36
28838,-100781,9375,-781,2040,-45,27,-36
28840,-100781,9375,-781,2046,-46,27,-36
28842,-100781,9375,-781,2032,-46,28,-37
28844,-100781,9375,-781,2041,-46,28,-37
28846,-100781,7031,-781,2045,-46,28,-37
28848,-100781,7031,-781,2028,-46,28,-37
28850,-100781,7031,-781,2036,-46,28,-37
28852,-100781,7031,-781,2040,-46,28,-37
28854,-100781,7031,-781,2041,-46,28,-37
28856,-100000,8593,-1562,2056,-46,28,-37
28858,-100000,8593,-1562,2048,-47,28,-37
28860,-100000,8593,-1562,2036,-47,29,-37
28862,-100000,8593,-1562,2038,-47,29,-37
28864,-100000,8593,-1562,2032,-47,29,-37
28866,-100000,8593,-1562,2035,-47,29,-37
28868,-100000,8593,-1562,2032,-47,29,-37
28870,-100000,8593,-1562,2046,-47,29,-37
28872,-100000,8593,-1562,2042,-47,29,-37
28874,-100000,8593,-1562,2041,-47,29,-37
28876,-100000,8593,-1562,2031,-47,29,-37
28878,-100000,7812,-1562,2036,-47,29,-37
28880,-100000,7812,-1562,2038,-48,29,-37
28882,-100000,7812,-1562,2033,-48,29,-37
28884,-100000,7812,-1562,2037,-48,29,-37
28886,-100000,7812,-1562,2041,-48,29,-37
28888,-100781,8593,-781,2043,-48,29,-37
28890,-100781,8593,-781,2042,-48,29,-37
28892,-100781,8593,-781,2036,-48,29,-37
28894,-100781,8593,-781,2043,-48,29,-37
28896,-100781,8593,-781,2041,-48,29,-37
28898,-100000,7812,-781,2037,-48,29,-37
28900,-100000,7812,-781,2041,-48,29,-37
28902,-100000,7812,-781,2051,-48,29,-37
28904,-100000,7812,-781,2041,-48,29,-37
28906,-100000,7812,-781,2048,-48,28,-37
28908,-100000,7812,-2343,2046,-48,28,-37
28910,-100000,7812,-2343,2036,-48,28,-37
28912,-100000,7812,-2343,2053,-48,28,-37
28914,-100000,7812,-2343,2046,-48,28,-37
28916,-100000,7812,-2343,2048,-48,28,-37
28918,-100781,8593,-781,2038,-48,28,-37
28920,-100781,8593,-781,2040,-48,27,-37
28922,-100781,8593,-781,2051,-48,27,-37
28924,-100781,8593,-781,2032,-49,27,-37
28926,-100781,8593,-781,2048,-49,27,-37
28928,-100000,8593,-781,2040,-49,27,-37
28930,-100000,8593,-781,2042,-49,26,-37
28932,-100000,8593,-781,2045,-49,26,-37
28934,-100000,8593,-781,2041,-49,26,-37
28936,-100000,8593,-781,2042,-50,26,-37
28938,-100781,7812,-2343,2032,-50,26,-37
28940,-100781,7812,-2343,2046,-50,25,-37
28942,-100781,7812,-2343,2041,-50,25,-37
28944,-100781,7812,-2343,2042,-50,25,-37
28946,-100781,7812,-2343,2038,-50,25,-37
28948,-100781,7812,-781,2045,-50,25,-37
28950,-100781,7812,-781,2033,-50,25,-37
28952,-100781,7812,-781,2052,-50,25,-37
28954,-100781,7812,-781,2041,-50,25,-37
28956,-100781,7812,-781,2041,-50,25,-37
28975,-100781,7812,-1562,2037,-51,26,-37
28976,-100781,7812,-1562,2038,-51,26,-37
28978,-100781,7031,-1562,2041,-51,26,-37
28979,-100781,7031,-1562,2046,-52,27,-37
28981,-100781,7031,-1562,2036,-52,27,-37
28982,-100781,7031,-1562,2042,-52,27,-37
28984,-100781,7031,-1562,2045,-52,27,-37
28985,-100781,7031,-1562,2046,-52,27,-37
28987,-100781,7031,-1562,2041,-52,27,-37
28988,-100781,8593,-2343,2041,-52,28,-38
28990,-100781,8593,-2343,2042,-53,28,-38
28992,-100781,8593,-2343,2038,-53,28,-38
28993,-100781,8593,-2343,2043,-53,28,-38
28995,-100781,8593,-2343,2037,-53,28,-38
28996,-100781,8593,-2343,2041,-53,28,-38
28998,-100781,8593,-2343,2036,-53,28,-38
28999,-101562,7812,-781,2038,-53,28,-38
29000,-101562,7812,-781,2041,-53,28,-38
29002,-101562,7812,-781,2046,-53,28,-38
29003,-101562,7812,-781,2038,-53,28,-38
29005,-101562,7812,-781,2036,-53,28,-38
29006,-101562,7812,-781,2042,-53,28,-38
29008,-101562,7812,-781,2046,-53,28,-38
29009,-100781,8593,-1562,2033,-54,29,-38
29011,-100781,8593,-1562,2043,-54,29,-38
29012,-100781,8593,-1562,2031,-54,29,-38
29014,-100781,8593,-1562,2040,-54,29,-38
29016,-100781,8593,-1562,2045,-54,29,-38
29017,-100781,8593,-1562,2042,-54,29,-38
29019,-100781,7812,-1562,2035,-54,29,-38
29020,-100781,7812,-1562,2047,-54,28,-38
29022,-100781,7812,-1562,2038,-54,28,-38
29023,-100781,7812,-1562,2032,-54,28,-38
29025,-100781,7812,-1562,2041,-54,28,-38
29026,-100781,7812,-1562,2041,-54,28,-38
29028,-100781,9375,-2343,2031,-54,28,-38
29030,-100781,9375,-2343,2045,-54,28,-38
29032,-100781,9375,-2343,2040,-54,27,-38
29034,-100781,9375,-2343,2041,-55,27,-38
29036,-100781,9375,-2343,2043,-55,27,-38
29038,-100781,9375,-2343,2042,-55,27,-38
29040,-100781,7812,-1562,2041,-55,27,-39
29042,-100781,7812,-1562,2043,-55,27,-39
29044,-100781,7812,-1562,2054,-55,27,-38
29046,-100781,7812,-1562,2042,-55,26,-38
29048,-100781,7812,-1562,2036,-55,26,-39
29050,-100781,7812,-781,2041,-55,26,-39
29052,-100781,7812,-781,2051,-56,25,-39
29054,-100781,7812,-781,2043,-56,25,-38
29056,-100781,7812,-781,2031,-56,25,-38
29058,-100781,7812,-781,2041,-56,25,-38
29060,-100781,6250,-2343,2046,-56,25,-38
29062,-100781,6250,-2343,2052,-56,25,-38
29064,-100781,6250,-2343,2054,-56,25,-38
29066,-100781,6250,-2343,2046,-57,25,-38
29068,-100781,6250,-2343,2036,-57,25,-38
29070,-100781,8593,-1562,2036,-56,25,-38
29072,-100781,8593,-1562,2040,-56,25,-38
29074,-100781,8593,-1562,2040,-57,25,-38
29076,-100781,8593,-1562,2037,-57,25,-38
29078,-100781,8593,-1562,2036,-57,25,-38
29080,-100781,7031,-2343,2033,-57,25,-38
29082,-100781,7031,-2343,2032,-57,25,-38
29084,-100781,7031,-2343,2042,-57,25,-38
29086,-100781,7031,-2343,2041,-57,26,-38
29088,-100781,7031,-2343,2036,-57,26,-38
29090,-101562,6250,0,2049,-58,26,-38
29092,-101562,6250,0,2042,-58,26,-38
29094,-101562,6250,0,2033,-58,26,-39
29096,-101562,6250,0,2042,-58,26,-39
29098,-101562,6250,0,2041,-58,26,-39
29100,-100781,7812,-781,2040,-58,26,-39
29102,-100781,7812,-781,2045,-58,26,-39
29132,-100781,7812,-781,2045,-60,30,-39
29133,-100781,7812,-781,2042,-60,30,-39
29135,-100781,7812,-781,2047,-60,30,-39
29136,-100781,7812,-781,2037,-60,30,-39
29138,-100781,7812,-781,2042,-60,30,-39
29139,-100781,7812,-781,2043,-61,30,-39
29141,-100781,8593,0,2047,-61,30,-39
29142,-100781,8593,0,2042,-61,30,-39
29144,-100781,8593,0,2038,-61,30,-39
29145,-100781,8593,0,2038,-61,30,-39
29147,-100781,8593,0,2041,-61,30,-39
29148,-100781,8593,0,2041,-61,30,-39
29150,-100781,8593,-1562,2051,-61,30,-39
29151,-100781,8593,-1562,2040,-62,29,-39
29153,-100781,8593,-1562,2041,-62,29,-39
29154,-100781,8593,-1562,2048,-62,29,-38
29156,-100781,8593,-1562,2037,-62,29,-38
29157,-100781,8593,-1562,2036,-62,29,-39
29159,-100781,8593,-1562,2048,-62,29,-39
29160,-100781,8593,-781,2037,-62,29,-39
29162,-100781,8593,-781,2032,-62,29,-39
29163,-100781,8593,-781,2042,-62,29,-39
29165,-100781,8593,-781,2036,-62,29,-38
29166,-100781,8593,-781,2035,-63,28,-38
29168,-100781,8593,-781,2032,-63,28,-38
29169,-100781,8593,-781,2041,-63,28,-38
29171,-100781,9375,-1562,2032,-63,28,-38
29172,-100781,9375,-1562,2032,-63,28,-38
29174,-100781,9375,-1562,2042,-63,28,-38
29175,-100781,9375,-1562,2046,-63,28,-38
29177,-100781,9375,-1562,2046,-63,27,-38
29178,-100781,9375,-1562,2038,-63,28,-38
29180,-100781,9375,-1562,2047,-63,28,-38
29181,-100781,9375,0,2037,-63,28,-38
29183,-100781,9375,0,2046,-63,27,-38
29184,-100781,9375,0,2038,-63,28,-38
29200,-100781,7812,-781,2045,-64,27,-37
29202,-100781,7812,-781,2037,-64,27,-37
29203,-100781,7812,-781,2048,-64,27,-37
29205,-100781,7812,-781,2043,-64,28,-38
29206,-100781,7812,-781,2041,-64,28,-38
29208,-100781,7812,-781,2031,-64,28,-38
29209,-100781,7812,-781,2048,-64,28,-38
29211,-101562,8593,-781,2041,-64,28,-38
29212,-101562,8593,-781,2040,-64,28,-38
29214,-101562,8593,-781,2032,-64,28,-38
29215,-101562,8593,-781,2035,-64,28,-38
29217,-101562,8593,-781,2037,-64,28,-38
29218,-101562,8593,-781,2036,-64,28,-38
29220,-101562,8593,-781,2036,-65,28,-38
29221,-100781,7812,-781,2045,-65,28,-38
29223,-100781,7812,-781,2036,-65,28,-38
29224,-100781,7812,-781,2054,-65,28,-38
29226,-100781,7812,-781,2035,-65,28,-38
29227,-100781,7812,-781,2045,-65,29,-38
29229,-100781,7812,-781,2037,-65,29,-38
29230,-100781,7812,-781,2038,-65,29,-38
29232,-100781,7031,0,2052,-65,29,-38
29233,-100781,7031,0,2041,-65,29,-38
29235,-100781,7031,0,2031,-65,29,-38
29236,-100781,7031,0,2042,-65,30,-38
29238,-100781,7031,0,2048,-65,30,-38
29239,-100781,7031,0,2033,-65,30,-38
29241,-100781,8593,-781,2042,-65,30,-38
29242,-100781,8593,-781,2036,-65,30,-38
29244,-100781,8593,-781,2038,-65,30,-38
29245,-100781,8593,-781,2037,-65,30,-38
29247,-100781,8593,-781,2038,-65,31,-38
29248,-100781,8593,-781,2041,-65,31,-38
29250,-100781,8593,-781,2043,-65,31,-38
29251,-100000,8593,-781,2042,-65,31,-38
29253,-100000,8593,-781,2040,-65,32,-38
29254,-100000,8593,-781,2037,-66,31,-38
29257,-100000,8593,-781,2043,-66,32,-38
29259,-100000,8593,-781,2046,-66,32,-38
29260,-100000,8593,-781,2035,-66,32,-38
29262,-100000,9375,0,2049,-66,32,-38
29263,-100000,9375,0,2042,-66,32,-38
29265,-100000,9375,0,2041,-66,32,-38
29267,-100000,9375,0,2043,-66,32,-38
29268,-100000,9375,0,2051,-66,32,-38
29270,-100000,9375,0,2043,-66,32,-38
29271,-100000,9375,0,2038,-66,32,-38
29272,-99218,8593,-781,2036,-66,32,-38
29274,-99218,8593,-781,2046,-66,32,-38
29275,-99218,8593,-781,2042,-66,32,-38
29277,-99218,8593,-781,2041,-66,32,-38
29278,-99218,8593,-781,2036,-67,32,-38
29280,-99218,8593,-781,2045,-67,32,-38
29282,-99218,8593,-781,2036,-67,32,-38
29284,-99218,8593,-781,2043,-66,32,-38
29286,-99218,8593,-781,2040,-66,31,-38
29288,-99218,8593,-781,2041,-66,31,-38
29290,-99218,8593,-781,2041,-66,31,-37
29292,-100000,9375,-781,2041,-66,31,-37
29294,-100000,9375,-781,2035,-66,31,-37
29296,-100000,9375,-781,2042,-66,30,-37
29298,-100000,9375,-781,2043,-67,30,-37
29300,-100000,9375,-781,2042,-67,30,-37
29302,-100000,9375,-781,2042,-67,30,-37
29304,-100000,9375,-781,2045,-67,30,-37
29306,-100000,9375,-781,2035,-67,30,-37
29308,-100000,9375,-781,2041,-67,30,-37
29310,-100000,9375,-781,2042,-67,29,-37
29312,-99218,8593,0,2041,-67,29,-37
29314,-99218,8593,0,2037,-67,29,-37
29316,-99218,8593,0,2042,-67,29,-37
29318,-99218,8593,0,2042,-66,28,-37
29320,-99218,8593,0,2037,-66,28,-37
29322,-99218,8593,0,2036,-66,28,-37
29324,-99218,8593,0,2045,-66,28,-37
29326,-99218,8593,0,2037,-66,28,-37
29328,-99218,8593,0,2042,-66,28,-37
29330,-99218,8593,0,2043,-66,28,-36
29332,-100000,8593,-781,2037,-66,28,-36
29334,-100000,8593,-781,2042,-66,28,-36
29336,-100000,8593,-781,2051,-66,28,-36
29338,-100000,8593,-781,2041,-66,28,-36
29340,-100000,8593,-781,2047,-66,28,-36
29342,-99218,8593,781,2041,-66,28,-36
29344,-99218,8593,781,2038,-66,29,-36
29346,-99218,8593,781,2049,-66,29,-36
29348,-99218,8593,781,2049,-66,29,-36
29350,-99218,8593,781,2046,-66,29,-36
29352,-99218,8593,-781,2046,-66,29,-36
29354,-99218,8593,-781,2031,-66,30,-36
29356,-99218,8593,-781,2047,-66,30,-36
29358,-99218,8593,-781,2045,-66,30,-36
29360,-99218,8593,-781,2045,-66,30,-36
29362,-99218,8593,0,2046,-66,31,-36
29364,-99218,8593,0,2035,-66,31,-36
29366,-99218,8593,0,2051,-66,31,-36
29368,-99218,8593,0,2047,-66,31,-36
29370,-99218,8593,0,2031,-66,31,-36
29372,-99218,7812,1562,2043,-66,32,-36
29374,-99218,7812,1562,2043,-66,32,-36
29376,-99218,7812,1562,2043,-66,32,-36
29378,-99218,7812,1562,2049,-66,32,-36
29380,-99218,7812,1562,2031,-66,32,-36
29382,-99218,7812,1562,2031,-66,32,-36
29384,-99218,8593,-781,2041,-66,32,-36
29387,-99218,8593,-781,2041,-66,32,-36
29388,-99218,8593,-781,2046,-66,32,-36
29390,-99218,8593,-781,2048,-65,32,-36
29392,-99218,8593,-781,2040,-65,32,-36
29394,-99218,9375,0,2047,-65,32,-36
29396,-99218,9375,0,2051,-65,32,-35
29398,-99218,9375,0,2037,-65,32,-35
29400,-99218,9375,0,2042,-65,32,-35
29402,-99218,9375,0,2041,-65,32,-35
29404,-99218,9375,0,2045,-65,32,-35
29406,-99218,9375,0,2038,-65,32,-35
29408,-99218,9375,0,2051,-65,32,-35
29410,-99218,9375,0,2042,-65,32,-35
29412,-99218,9375,0,2035,-65,32,-35
29414,-99218,8593,0,2043,-65,32,-35
29416,-99218,8593,0,2036,-65,31,-35
29418,-99218,8593,0,2031,-65,31,-35
29420,-99218,8593,0,2036,-65,31,-35
29422,-99218,8593,0,2041,-65,31,-35
29424,-98437,8593,781,2043,-64,31,-35
29426,-98437,8593,781,2046,-64,30,-35
29428,-98437,8593,781,2041,-64,30,-34
29430,-98437,8593,781,2041,-64,30,-34
29432,-98437,8593,781,2040,-64,30,-34
29434,-97656,8593,781,2040,-64,30,-34
29436,-97656,8593,781,2045,-64,29,-34
29438,-97656,8593,781,2047,-64,29,-34
29440,-97656,8593,781,2046,-64,29,-34
29442,-97656,8593,781,2040,-64,29,-34
29444,-98437,8593,1562,2042,-64,29,-34
29446,-98437,8593,1562,2046,-64,29,-34
29448,-98437,8593,1562,2051,-64,29,-34
29451,-98437,8593,1562,2038,-64,29,-34
29452,-98437,8593,1562,2042,-64,29,-34
29454,-96875,8593,781,2046,-64,29,-34
29456,-96875,8593,781,2037,-64,29,-34
29458,-96875,8593,781,2043,-63,29,-33
29460,-96875,8593,781,2036,-63,29,-33
29462,-96875,8593,781,2041,-63,29,-33
29464,-98437,8593,781,2042,-63,29,-33
29466,-98437,8593,781,2045,-63,29,-33
29468,-98437,8593,781,2040,-63,30,-33
29470,-98437,8593,781,2048,-63,29,-33
29472,-98437,8593,781,2037,-62,30,-33
29474,-98437,8593,2343,2043,-62,30,-33
29476,-98437,8593,2343,2042,-62,30,-33
29478,-98437,8593,2343,2042,-62,30,-33
29480,-98437,8593,2343,2042,-62,30,-33
29482,-98437,8593,2343,2041,-62,30,-33
29484,-98437,9375,781,2038,-61,31,-33
29486,-98437,9375,781,2032,-61,31,-33
29488,-98437,9375,781,2037,-61,31,-33
29490,-98437,9375,781,2036,-61,31,-33
29492,-98437,9375,781,2040,-61,32,-33
29494,-98437,8593,1562,2032,-61,32,-33
29496,-98437,8593,1562,2040,-61,32,-33
29498,-98437,8593,1562,2051,-61,32,-33
29500,-98437,8593,1562,2031,-61,32,-33
29502,-98437,8593,1562,2040,-61,33,-33
29504,-97656,7812,1562,2037,-60,33,-33
29506,-97656,7812,1562,2041,-60,33,-33
29508,-97656,7812,1562,2045,-60,33,-33
29510,-97656,7812,1562,2036,-60,33,-33
29512,-97656,7812,1562,2041,-60,33,-33
29514,-96875,8593,781,2045,-60,33,-33
29516,-96875,8593,781,2040,-60,33,-33
29518,-96875,8593,781,2053,-60,33,-33
29520,-96875,8593,781,2038,-60,33,-33
29522,-96875,8593,781,2041,-59,33,-33
29525,-97656,9375,781,2031,-59,33,-33
29526,-97656,9375,781,2048,-59,33,-33
29528,-97656,9375,781,2038,-59,33,-33
29530,-97656,9375,781,2046,-58,33,-33
29532,-97656,9375,781,2032,-58,33,-33
29534,-97656,9375,1562,2052,-58,33,-33
29536,-97656,9375,1562,2059,-58,32,-33
29538,-97656,9375,1562,2042,-58,32,-33
29540,-97656,9375,1562,2036,-58,32,-32
29542,-97656,9375,1562,2038,-58,32,-32
29544,-97656,9375,1562,2038,-57,32,-33
29546,-97656,9375,1562,2049,-57,32,-32
29548,-97656,9375,1562,2043,-57,31,-32
29550,-97656,9375,1562,2037,-57,31,-32
29552,-97656,9375,1562,2038,-57,31,-33
29554,-97656,9375,1562,2049,-56,31,-32
29556,-97656,9375,2343,2048,-56,31,-32
29558,-97656,9375,2343,2033,-56,31,-32
29560,-97656,9375,2343,2037,-56,31,-32
29562,-97656,9375,2343,2043,-56,31,-32
29564,-97656,9375,2343,2033,-56,31,-32
29566,-98437,9375,781,2041,-56,30,-32
29568,-98437,9375,781,2042,-55,30,-32
29570,-98437,9375,781,2041,-55,30,-32
29572,-98437,9375,781,2041,-54,30,-32
29574,-98437,9375,781,2037,-54,30,-32
29576,-96875,7812,781,2041,-54,30,-32
29578,-96875,7812,781,2033,-54,30,-32
29580,-96875,7812,781,2045,-54,29,-31
29582,-96875,7812,781,2042,-54,29,-31
29584,-96875,7812,781,2038,-54,29,-31
29586,-96875,9375,1562,2051,-53,29,-31
29588,-96875,9375,1562,2038,-53,29,-31
29590,-96875,9375,1562,2036,-53,29,-31
29592,-96875,9375,1562,2041,-52,29,-31
29594,-96875,9375,1562,2041,-52,29,-31
29596,-97656,9375,781,2047,-52,29,-31
29598,-97656,9375,781,2047,-52,29,-31
29600,-97656,9375,781,2041,-52,29,-31
29602,-97656,9375,781,2035,-52,29,-31
29604,-97656,9375,781,2038,-52,30,-31
29606,-97656,9375,781,2031,-52,30,-31
29608,-97656,9375,781,2040,-51,30,-31
29610,-97656,9375,781,2046,-51,30,-30
29612,-97656,9375,781,2038,-51,30,-30
29614,-97656,9375,781,2037,-51,30,-30
29616,-96093,8593,781,2040,-50,31,-30
29618,-96093,8593,781,2045,-50,31,-30
29620,-96093,8593,781,2040,-50,31,-30
29622,-96093,8593,781,2032,-50,31,-30
29624,-96093,8593,781,2038,-50,32,-30
29626,-96875,7812,3125,2037,-49,32,-30
29628,-96875,7812,3125,2035,-49,32,-30
29630,-96875,7812,3125,2031,-49,32,-30
29632,-96875,7812,3125,2045,-49,32,-30
29634,-96875,7812,3125,2038,-49,32,-30
29636,-96093,10156,781,2037,-49,32,-29
29638,-96093,10156,781,2038,-48,32,-29
29640,-96093,10156,781,2040,-48,32,-29
29642,-96093,10156,781,2046,-48,32,-29
29644,-96093,10156,781,2036,-48,32,-29
29646,-96093,10156,781,2033,-48,32,-29
29648,-96093,10156,781,2042,-48,32,-29
29650,-96093,10156,781,2043,-48,32,-29
29652,-96093,10156,781,2035,-47,32,-29
29654,-96093,10156,781,2049,-47,32,-29
29656,-96875,9375,0,2042,-47,31,-29
29658,-96875,9375,0,2037,-47,31,-29
29660,-96875,9375,0,2043,-47,31,-29
29662,-96875,9375,0,2040,-46,31,-29
29665,-96875,9375,0,2045,-46,31,-29
29666,-96875,9375,1562,2042,-46,31,-29
29668,-96875,9375,1562,2045,-46,31,-29
29670,-96875,9375,1562,2048,-46,30,-29
29672,-96875,9375,1562,2040,-45,30,-29
29674,-96875,9375,1562,2048,-45,30,-29
29676,-97656,10937,781,2042,-45,30,-29
29678,-97656,10937,781,2033,-45,29,-29
29680,-97656,10937,781,2045,-45,29,-29
29682,-97656,10937,781,2035,-44,29,-29
29684,-97656,10937,781,2040,-44,29,-29
29686,-96093,8593,781,2035,-44,29,-28
29688,-96093,8593,781,2031,-44,28,-29
29690,-96093,8593,781,2043,-43,28,-29
29692,-96093,8593,781,2041,-43,28,-28
29694,-96093,8593,781,2037,-43,28,-28
29696,-96093,9375,0,2040,-43,28,-28
29698,-96093,9375,0,2035,-43,27,-28
29700,-96093,9375,0,2042,-42,27,-28
29702,-96093,9375,0,2036,-42,27,-28
29704,-96093,9375,0,2036,-42,27,-28
29706,-96093,9375,1562,2036,-42,27,-28
29708,-96093,9375,1562,2048,-42,26,-27
29710,-96093,9375,1562,2041,-41,26,-27
29712,-96093,9375,1562,2036,-41,26,-27
29714,-96093,9375,1562,2035,-41,26,-27
29716,-96875,8593,2343,2035,-41,26,-27
29718,-96875,8593,2343,2042,-41,26,-27
29720,-96875,8593,2343,2040,-41,26,-27
29722,-96875,8593,2343,2041,-41,26,-27
29724,-96875,8593,2343,2036,-41,26,-27
29726,-96875,8593,2343,2040,-40,26,-27
29728,-97656,9375,3125,2036,-40,26,-27
29730,-97656,9375,3125,2037,-40,27,-27
29732,-97656,9375,3125,2040,-40,27,-27
29734,-97656,9375,3125,2047,-40,27,-27
29736,-97656,9375,3125,2043,-40,27,-27
29738,-96875,8593,1562,2041,-39,27,-27
29740,-96875,8593,1562,2038,-39,27,-27
29742,-96875,8593,1562,2045,-39,28,-27
29768,-97656,9375,781,2046,-37,29,-27
29770,-97656,9375,781,2031,-37,29,-27
29771,-97656,9375,781,2046,-37,29,-27
29773,-97656,9375,781,2049,-37,29,-27
29774,-97656,9375,781,2041,-37,29,-27
29776,-97656,9375,781,2038,-37,29,-27
29777,-96875,9375,781,2033,-37,29,-27
29779,-96875,9375,781,2043,-36,29,-27
29780,-96875,9375,781,2036,-36,29,-27
29782,-96875,9375,781,2038,-36,29,-27
29783,-96875,9375,781,2045,-36,28,-27
29784,-96875,9375,781,2036,-36,28,-27
29786,-96875,9375,781,2035,-36,28,-27
29787,-97656,9375,1562,2049,-36,28,-27
29789,-97656,9375,1562,2048,-36,28,-27
29791,-97656,9375,1562,2041,-36,28,-27
29792,-97656,9375,1562,2038,-36,28,-27
29794,-97656,9375,1562,2040,-36,28,-27
29795,-97656,9375,1562,2042,-35,28,-27
29797,-97656,9375,1562,2038,-35,27,-27
29798,-98437,10156,781,2040,-35,27,-27
29800,-98437,10156,781,2038,-35,27,-27
29801,-98437,10156,781,2041,-35,27,-26
29803,-98437,10156,781,2048,-35,27,-26
29804,-98437,10156,781,2041,-35,27,-26
29805,-98437,10156,781,2041,-34,27,-26
29807,-98437,10156,781,2031,-34,27,-26
29808,-96875,9375,1562,2042,-34,26,-26
29810,-96875,9375,1562,2031,-34,26,-26
29811,-96875,9375,1562,2046,-34,26,-26
29813,-96875,9375,1562,2036,-34,26,-26
29814,-96875,9375,1562,2031,-34,26,-26
29816,-96875,9375,1562,2036,-34,26,-26
29817,-97656,9375,781,2033,-34,25,-26
29819,-97656,9375,781,2046,-34,25,-27
29822,-97656,9375,781,2046,-33,25,-26
29824,-97656,9375,781,2041,-33,25,-26
29825,-97656,9375,781,2037,-33,24,-26
29826,-97656,9375,781,2033,-33,24,-26
29828,-97656,9375,-781,2040,-33,24,-26
29829,-97656,9375,-781,2038,-33,24,-26
29831,-97656,9375,-781,2038,-33,24,-26
29832,-97656,9375,-781,2030,-32,24,-26
29834,-97656,9375,-781,2035,-32,24,-26
29835,-97656,9375,-781,2047,-32,23,-26
29837,-97656,9375,-781,2037,-32,23,-26
29838,-97656,9375,1562,2040,-32,23,-26
29840,-97656,9375,1562,2048,-32,23,-27
29842,-97656,9375,1562,2051,-32,23,-27
29843,-97656,9375,1562,2031,-32,23,-27
29845,-97656,9375,1562,2046,-32,23,-27
29846,-97656,9375,1562,2038,-32,23,-27
29848,-97656,9375,-1562,2043,-32,23,-27
29850,-97656,9375,-1562,2031,-32,23,-27
29852,-97656,9375,-1562,2035,-32,23,-27
29854,-97656,9375,-1562,2040,-32,23,-27
29856,-97656,9375,-1562,2041,-32,23,-27
29858,-97656,9375,-781,2047,-32,23,-27
29860,-97656,9375,-781,2048,-31,23,-26
29862,-97656,9375,-781,2032,-31,23,-26
29864,-97656,9375,-781,2046,-31,23,-26
29866,-97656,9375,-781,2048,-31,23,-27
29868,-98437,9375,-781,2038,-31,23,-27
29870,-98437,9375,-781,2042,-31,23,-27
29872,-98437,9375,-781,2036,-31,24,-27
29874,-98437,9375,-781,2042,-31,24,-26
29876,-98437,9375,-781,2032,-31,24,-26
29878,-98437,8593,781,2052,-30,24,-26
29880,-98437,8593,781,2035,-30,24,-26
29882,-98437,8593,781,2032,-30,24,-26
29884,-98437,8593,781,2041,-30,24,-27
29886,-98437,8593,781,2040,-30,24,-27
29888,-98437,9375,0,2043,-30,24,-26
29890,-98437,9375,0,2045,-30,24,-27
29892,-98437,9375,0,2041,-30,24,-27
29933,-98437,10156,-781,2045,-29,23,-26
29935,-98437,10156,-781,2032,-29,22,-26
29936,-98437,10156,-781,2035,-29,22,-26
29938,-98437,10156,-781,2053,-29,22,-26
29939,-97656,9375,-1562,2032,-29,22,-26
29941,-97656,9375,-1562,2046,-29,21,-26
29942,-97656,9375,-1562,2036,-29,21,-26
29944,-97656,9375,-1562,2038,-29,21,-26
29945,-97656,9375,-1562,2031,-29,21,-26
29947,-97656,9375,-1562,2046,-29,20,-26
29948,-97656,9375,-1562,2042,-29,20,-26
29950,-98437,9375,781,2040,-29,20,-26
29951,-98437,9375,781,2043,-29,20,-26
29953,-98437,9375,781,2046,-29,20,-26
29954,-98437,9375,781,2036,-29,19,-26
29956,-98437,9375,781,2035,-29,19,-26
29957,-98437,9375,781,2037,-29,19,-26
29959,-98437,9375,781,2041,-29,19,-26
29960,-98437,10156,0,2045,-29,19,-26
29962,-98437,10156,0,2035,-29,19,-25
29963,-98437,10156,0,2043,-29,19,-25
29965,-98437,10156,0,2043,-29,19,-25
29966,-98437,10156,0,2046,-29,19,-25
29968,-98437,10156,0,2033,-29,19,-25
29969,-99218,9375,-1562,2042,-29,18,-25
29971,-99218,9375,-1562,2041,-29,18,-25
29972,-99218,9375,-1562,2031,-28,18,-25
29974,-99218,9375,-1562,2035,-28,18,-25
29975,-99218,9375,-1562,2038,-28,18,-25
29977,-99218,9375,-1562,2041,-28,18,-25
29978,-99218,9375,-1562,2032,-29,18,-25
29980,-100000,9375,0,2042,-29,18,-25
29981,-100000,9375,0,2038,-29,18,-25
29983,-100000,9375,0,2031,-28,18,-25
29984,-100000,9375,0,2033,-28,18,-25
29986,-100000,9375,0,2037,-28,18,-25
29989,-100000,9375,0,2041,-28,18,-25
29990,-100000,9375,-1562,2038,-28,18,-25
29992,-100000,9375,-1562,2033,-28,18,-25
29993,-100000,9375,-1562,2033,-29,18,-25
29995,-100000,9375,-1562,2046,-29,18,-25
29996,-100000,9375,-1562,2051,-29,18,-25
29998,-100000,9375,-1562,2036,-29,18,-25
29999,-100000,9375,-1562,2040,-29,18,-25
30001,-99218,9375,-2343,2038,-29,18,-25
30002,-99218,9375,-2343,2038,-29,18,-25
30004,-99218,9375,-2343,2043,-29,19,-25
30005,-99218,9375,-2343,2042,-29,19,-25
30007,-99218,9375,-2343,2042,-29,19,-25
30008,-99218,9375,-2343,2037,-29,19,-25
30010,-99218,9375,-2343,2049,-29,19,-25
30011,-99218,9375,-1562,2041,-29,19,-25
30013,-99218,9375,-1562,2040,-29,19,-25
30014,-99218,9375,-1562,2041,-29,19,-25
30016,-99218,9375,-1562,2043,-29,20,-25
30017,-99218,9375,-1562,2037,-29,20,-25
30019,-99218,9375,-1562,2036,-29,20,-25
30020,-100000,10156,-2343,2038,-29,20,-25
30022,-100000,10156,-2343,2049,-29,20,-25
30023,-100000,10156,-2343,2032,-29,20,-25
30025,-100000,10156,-2343,2046,-29,20,-25
30026,-100000,10156,-2343,2037,-29,20,-25
30028,-100000,10156,-2343,2046,-29,20,-25
30029,-100000,10156,-2343,2033,-29,20,-25
30031,-100000,10156,-2343,2035,-29,20,-25
30032,-100000,10156,-2343,2030,-29,20,-25
30034,-100000,10156,-2343,2041,-29,20,-25
30035,-100000,10156,-2343,2032,-29,20,-25
30037,-100000,10156,-2343,2052,-29,20,-25
30038,-100000,10156,-2343,2043,-29,20,-25
30039,-100000,10156,-2343,2049,-30,20,-26
30041,-99218,10937,-1562,2045,-30,20,-26
30043,-99218,10937,-1562,2040,-29,20,-26
30045,-99218,10937,-1562,2038,-29,20,-25
30063,-100000,10156,-1562,2033,-30,19,-26
30064,-100000,10156,-1562,2048,-30,19,-26
30066,-100000,10156,-1562,2030,-30,19,-26
30068,-100000,10156,-1562,2036,-30,18,-26
30069,-100000,10156,-1562,2042,-31,18,-26
30071,-100781,10937,-2343,2043,-31,18,-26
30072,-100781,10937,-2343,2035,-31,18,-25
30074,-100781,10937,-2343,2045,-31,18,-25
30075,-100781,10937,-2343,2042,-31,17,-25
30076,-100781,10937,-2343,2048,-31,17,-25
30078,-100781,10937,-2343,2036,-31,17,-25
30080,-100781,10937,-2343,2032,-31,17,-25
30081,-100000,9375,-2343,2036,-31,17,-25
30083,-100000,9375,-2343,2037,-31,17,-25
30084,-100000,9375,-2343,2040,-31,17,-25
30086,-100000,9375,-2343,2045,-31,16,-25
30087,-100000,9375,-2343,2041,-31,16,-25
30089,-100000,9375,-2343,2041,-32,16,-25
30090,-100000,9375,-2343,2038,-32,16,-25
30092,-99218,8593,-1562,2043,-32,16,-25
30093,-99218,8593,-1562,2040,-32,16,-25
30095,-99218,8593,-1562,2031,-32,16,-25
30096,-99218,8593,-1562,2038,-32,16,-25
30098,-99218,8593,-1562,2042,-32,15,-25
30099,-99218,8593,-1562,2041,-32,15,-25
30101,-99218,8593,-1562,2041,-32,15,-25
30102,-100000,9375,-2343,2040,-32,15,-25
30104,-100000,9375,-2343,2032,-33,15,-25
30105,-100000,9375,-2343,2041,-33,15,-25
30106,-100000,9375,-2343,2031,-33,15,-25
30108,-100000,9375,-2343,2040,-33,15,-25
30109,-100000,9375,-2343,2041,-33,15,-25
30111,-100781,8593,-2343,2038,-33,15,-25
30114,-100781,8593,-2343,2040,-33,14,-25
30115,-100781,8593,-2343,2033,-33,14,-25
30117,-100781,8593,-2343,2046,-33,14,-25
30118,-100781,8593,-2343,2042,-33,14,-25
30120,-100781,8593,-2343,2045,-33,15,-25
30121,-100781,10156,-1562,2038,-33,15,-25
30123,-100781,10156,-1562,2048,-33,15,-25
30124,-100781,10156,-1562,2041,-33,15,-25
30126,-100781,10156,-1562,2041,-33,15,-25
30127,-100781,10156,-1562,2048,-33,15,-25
30129,-100781,10156,-1562,2035,-33,15,-25
30130,-100781,10156,-1562,2046,-34,15,-25
30132,-100781,9375,-1562,2041,-34,16,-25
30134,-100781,9375,-1562,2033,-34,16,-25
30136,-100781,9375,-1562,2038,-34,16,-25
30138,-100781,9375,-1562,2041,-34,16,-25
30140,-100781,9375,-1562,2036,-34,16,-25
30142,-100781,9375,-3906,2033,-35,16,-25
30144,-100781,9375,-3906,2035,-35,16,-25
30146,-100781,9375,-3906,2031,-35,16,-25
30148,-100781,9375,-3906,2041,-35,16,-25
30150,-100781,9375,-3906,2040,-36,17,-25
30152,-100781,10156,-3906,2041,-36,17,-25
30154,-100781,10156,-3906,2037,-36,17,-25
30156,-100781,10156,-3906,2045,-36,17,-26
30158,-100781,10156,-3906,2042,-36,17,-26
30160,-100781,10156,-3906,2045,-36,17,-25
30162,-100000,10937,-3125,2053,-36,17,-25
30164,-100000,10937,-3125,2041,-36,17,-25
30166,-100000,10937,-3125,2036,-37,17,-25
30168,-100000,10937,-3125,2041,-37,17,-25
30170,-100000,10937,-3125,2033,-37,17,-25
30172,-100781,10156,-1562,2037,-38,17,-25
30174,-100781,10156,-1562,2043,-38,17,-25
30176,-100781,10156,-1562,2042,-38,17,-25
30178,-100781,10156,-1562,2046,-38,17,-25
30180,-100781,10156,-1562,2035,-38,17,-25
30183,-100781,10156,-2343,2040,-38,17,-25
30184,-100781,10156,-2343,2036,-38,17,-25
30186,-100781,10156,-2343,2032,-39,17,-25
30188,-100781,10156,-2343,2042,-39,16,-25
30190,-100781,10156,-2343,2049,-39,16,-25
30192,-101562,10156,-2343,2036,-39,16,-25
30194,-101562,10156,-2343,2037,-39,16,-25
30196,-101562,10156,-2343,2051,-39,16,-25
30198,-101562,10156,-2343,2041,-39,16,-25
30200,-101562,10156,-2343,2043,-39,16,-25
30202,-100781,11718,-3125,2045,-39,16,-25
30204,-100781,11718,-3125,2048,-40,15,-26
30206,-100781,11718,-3125,2048,-40,15,-26
30208,-100781,11718,-3125,2041,-40,15,-25
30210,-100781,11718,-3125,2032,-40,14,-25
30212,-101562,10156,-3125,2052,-40,14,-25
30214,-101562,10156,-3125,2037,-40,14,-25
30216,-101562,10156,-3125,2042,-40,14,-25
30218,-101562,10156,-3125,2053,-40,14,-25
30220,-101562,10156,-3125,2041,-41,14,-26
30222,-100781,10156,-3906,2032,-41,14,-26
30224,-100781,10156,-3906,2046,-41,13,-25
30226,-100781,10156,-3906,2041,-41,13,-26
30228,-100781,10156,-3906,2038,-41,13,-26
30230,-100781,10156,-3906,2042,-42,13,-25
30232,-100781,10156,-2343,2038,-42,13,-25
30234,-100781,10156,-2343,2043,-42,13,-25
30236,-100781,10156,-2343,2041,-42,13,-25
30238,-100781,10156,-2343,2043,-42,13,-25
30240,-100781,10156,-2343,2041,-42,13,-25
30242,-100781,9375,-3125,2042,-43,13,-26
30244,-100781,9375,-3125,2043,-43,13,-26
30246,-100781,9375,-3125,2048,-43,12,-26
30248,-100781,9375,-3125,2042,-43,12,-26
30250,-100781,9375,-3125,2042,-43,12,-26
30252,-100781,9375,-3125,2045,-44,12,-26
30254,-100781,10937,-3906,2040,-44,13,-26
30256,-100781,10937,-3906,2041,-44,13,-26
30258,-100781,10937,-3906,2041,-44,13,-26
30260,-100781,10937,-3906,2041,-44,13,-26
30262,-100781,10937,-3906,2035,-45,13,-26
30264,-100781,10156,-3906,2033,-45,13,-26
30266,-100781,10156,-3906,2041,-45,13,-26
30268,-100781,10156,-3906,2043,-45,13,-26
30270,-100781,10156,-3906,2048,-45,13,-26
30272,-100781,10156,-3906,2051,-46,13,-26
30274,-101562,9375,-3906,2041,-46,13,-26
30276,-101562,9375,-3906,2032,-46,14,-26
30278,-101562,9375,-3906,2047,-46,14,-26
30280,-101562,9375,-3906,2036,-46,14,-26
30282,-101562,9375,-3906,2048,-47,14,-26
30284,-100781,10156,-4687,2049,-47,14,-26
30286,-100781,10156,-4687,2031,-47,15,-26
30288,-100781,10156,-4687,2040,-47,15,-26
30290,-100781,10156,-4687,2047,-48,15,-26
30292,-100781,10156,-4687,2041,-48,15,-26
30294,-102343,9375,-1562,2038,-48,15,-26
30296,-102343,9375,-1562,2057,-49,15,-26
30298,-102343,9375,-1562,2040,-49,15,-26
30300,-102343,9375,-1562,2032,-49,15,-26
30302,-102343,9375,-1562,2046,-49,15,-26
30304,-101562,10937,-3125,2036,-49,15,-26
30306,-101562,10937,-3125,2037,-50,15,-26
30308,-101562,10937,-3125,2049,-49,14,-26
30310,-101562,10937,-3125,2037,-50,14,-26
30312,-101562,10937,-3125,2042,-50,14,-26
30314,-101562,8593,-3125,2038,-50,14,-26
30316,-101562,8593,-3125,2041,-50,14,-26
30318,-101562,8593,-3125,2041,-50,14,-26
30320,-101562,8593,-3125,2038,-51,14,-26
30322,-101562,8593,-3125,2041,-51,14,-26
30324,-100781,9375,-3125,2046,-51,14,-26
30326,-100781,9375,-3125,2041,-51,14,-26
30328,-100781,9375,-3125,2047,-51,13,-26
30330,-100781,9375,-3125,2046,-52,13,-26
30332,-100781,9375,-3125,2036,-52,13,-26
30334,-101562,9375,-3125,2040,-52,13,-26
30336,-101562,9375,-3125,2033,-52,13,-26
30338,-101562,9375,-3125,2031,-53,12,-26
30340,-101562,9375,-3125,2038,-53,12,-26
30342,-101562,9375,-3125,2042,-53,12,-26
30344,-101562,10156,-3906,2046,-53,12,-26
30346,-101562,10156,-3906,2041,-53,12,-26
30348,-101562,10156,-3906,2043,-53,12,-25
30350,-101562,10156,-3906,2046,-54,12,-25
30352,-101562,10156,-3906,2033,-54,11,-25
30354,-100781,9375,-3125,2051,-54,11,-25
30356,-100781,9375,-3125,2036,-54,11,-25
30358,-100781,9375,-3125,2046,-55,11,-25
30360,-100781,9375,-3125,2036,-55,11,-25
30362,-100781,9375,-3125,2042,-55,11,-25
30364,-101562,8593,-2343,2046,-55,12,-25
30366,-101562,8593,-2343,2051,-55,11,-25
30368,-101562,8593,-2343,2046,-56,11,-25
30370,-101562,8593,-2343,2045,-56,11,-25
30372,-101562,8593,-2343,2036,-56,12,-25
30374,-101562,7812,-2343,2042,-56,12,-25
30376,-101562,7812,-2343,2031,-56,12,-25
30378,-101562,7812,-2343,2036,-57,12,-26
30380,-101562,7812,-2343,2051,-57,12,-26
30382,-101562,7812,-2343,2040,-57,12,-26
30384,-102343,9375,-2343,2040,-57,12,-26
30386,-102343,9375,-2343,2035,-58,12,-26
30388,-102343,9375,-2343,2033,-58,12,-26
30390,-102343,9375,-2343,2032,-58,12,-26
30392,-102343,9375,-2343,2037,-58,13,-26
30394,-100781,9375,-3906,2049,-58,13,-26
30396,-100781,9375,-3906,2041,-58,13,-26
30398,-100781,9375,-3906,2041,-59,13,-26
30400,-100781,9375,-3906,2046,-59,13,-26
30402,-100781,9375,-3906,2035,-59,14,-26
30404,-102343,8593,-3906,2042,-59,14,-26
30406,-102343,8593,-3906,2035,-60,14,-26
30408,-102343,8593,-3906,2036,-60,14,-26
30446,-101562,9375,-2343,2032,-63,14,-27
30448,-101562,9375,-2343,2040,-64,14,-27
30449,-101562,9375,-2343,2047,-64,14,-27
30451,-101562,9375,-2343,2031,-64,14,-27
30452,-101562,9375,-2343,2033,-64,14,-27
30453,-101562,9375,-2343,2041,-64,14,-27
30455,-102343,9375,-2343,2045,-64,14,-27
30456,-102343,9375,-2343,2042,-64,14,-27
30458,-102343,9375,-2343,2036,-64,14,-27
30459,-102343,9375,-2343,2041,-65,14,-27
30461,-102343,9375,-2343,2032,-65,14,-27
30462,-102343,9375,-2343,2041,-65,13,-27
30464,-102343,9375,-2343,2043,-65,13,-26
30466,-102343,8593,-3906,2030,-65,13,-26
30467,-102343,8593,-3906,2040,-65,13,-26
30469,-102343,8593,-3906,2041,-66,13,-26
30470,-102343,8593,-3906,2041,-66,13,-26
30472,-102343,8593,-3906,2033,-66,13,-26
30473,-102343,8593,-3906,2040,-66,13,-26
30474,-102343,8593,-3906,2041,-66,13,-26
30476,-103125,8593,-3125,2041,-66,13,-26
30477,-103125,8593,-3125,2049,-66,12,-26
30479,-103125,8593,-3125,2041,-66,12,-26
30480,-103125,8593,-3125,2045,-67,12,-26
30482,-103125,8593,-3125,2032,-67,12,-26
30483,-103125,8593,-3125,2036,-67,12,-26
30485,-103125,8593,-3125,2042,-67,12,-26
30486,-102343,9375,-1562,2032,-67,12,-26
30488,-102343,9375,-1562,2041,-67,11,-26
30489,-102343,9375,-1562,2033,-67,11,-26
30491,-102343,9375,-1562,2040,-67,11,-26
30494,-102343,9375,-1562,2043,-68,11,-26
30495,-101562,7812,-2343,2035,-68,11,-26
30497,-101562,7812,-2343,2043,-68,11,-26
30498,-101562,7812,-2343,2043,-68,12,-25
30500,-101562,7812,-2343,2048,-68,12,-25
30501,-101562,7812,-2343,2049,-68,12,-25
30503,-101562,7812,-2343,2045,-68,12,-25
30504,-101562,7812,-2343,2038,-69,12,-25
30506,-102343,7812,-3906,2041,-69,12,-25
30507,-102343,7812,-3906,2041,-69,12,-25
30509,-102343,7812,-3906,2045,-69,12,-25
30510,-102343,7812,-3906,2046,-69,13,-25
30512,-102343,7812,-3906,2040,-69,13,-25
30513,-102343,7812,-3906,2043,-69,13,-25
30515,-102343,7812,-3906,2043,-69,13,-25
30516,-102343,7812,-3125,2041,-70,13,-25
30518,-102343,7812,-3125,2045,-70,13,-25
30519,-102343,7812,-3125,2041,-70,13,-25
30521,-102343,7812,-3125,2041,-70,14,-25
30522,-102343,7812,-3125,2037,-70,14,-26
30524,-102343,7812,-3125,2041,-70,14,-26
30525,-102343,7812,-3125,2041,-70,14,-26
30527,-102343,7812,-2343,2037,-70,14,-26
30528,-102343,7812,-2343,2045,-71,15,-26
30530,-102343,7812,-2343,2031,-71,15,-26
30531,-102343,7812,-2343,2035,-71,15,-26
30533,-102343,7812,-2343,2049,-72,15,-26
30534,-102343,7812,-2343,2041,-72,15,-26
30536,-101562,8593,-1562,2053,-72,15,-26
30537,-101562,8593,-1562,2033,-72,16,-26
30539,-101562,8593,-1562,2036,-72,16,-26
30540,-101562,8593,-1562,2043,-73,16,-26
30542,-101562,8593,-1562,2032,-73,16,-26
30543,-101562,8593,-1562,2046,-73,16,-26
30545,-101562,8593,-1562,2046,-73,17,-26
30547,-102343,8593,-1562,2052,-73,17,-26
30549,-102343,8593,-1562,2049,-73,17,-26
30550,-102343,8593,-1562,2045,-73,17,-26
30551,-102343,8593,-1562,2049,-73,17,-26
30553,-102343,8593,-1562,2041,-73,17,-26
30565,-101562,9375,-1562,2048,-74,18,-26
30567,-101562,9375,-2343,2043,-74,18,-26
30568,-101562,9375,-2343,2037,-74,18,-26
30570,-101562,9375,-2343,2036,-74,18,-26
30571,-101562,9375,-2343,2046,-74,18,-26
30573,-101562,9375,-2343,2045,-74,18,-26
30574,-101562,9375,-2343,2049,-74,18,-26
30576,-101562,9375,-2343,2035,-74,18,-26
30577,-101562,9375,-781,2032,-75,18,-26
30579,-101562,9375,-781,2032,-75,18,-26
30580,-101562,9375,-781,2043,-75,18,-26
30582,-101562,9375,-781,2045,-75,18,-26
30583,-101562,9375,-781,2031,-75,18,-26
30585,-101562,9375,-781,2035,-75,18,-26
30586,-102343,9375,-781,2041,-75,18,-26
30588,-102343,9375,-781,2052,-75,18,-26
30589,-102343,9375,-781,2043,-75,18,-26
30591,-102343,9375,-781,2036,-75,17,-26
30592,-102343,9375,-781,2046,-75,17,-26
30594,-102343,9375,-781,2040,-76,17,-26
30595,-102343,9375,-781,2038,-76,17,-26
30597,-101562,8593,-1562,2031,-76,17,-26
30598,-101562,8593,-1562,2046,-76,17,-26
30600,-101562,8593,-1562,2041,-76,17,-26
30601,-101562,8593,-1562,2036,-76,17,-26
30603,-101562,8593,-1562,2049,-76,17,-26
30604,-101562,8593,-1562,2051,-76,17,-26
30606,-101562,8593,-1562,2032,-76,17,-26
30608,-100781,8593,-2343,2042,-77,17,-25
30611,-100781,8593,-2343,2046,-77,17,-25
30612,-100781,8593,-2343,2041,-77,17,-25
30614,-100781,8593,-2343,2042,-77,17,-25
30616,-100781,8593,-2343,2041,-77,17,-25
30618,-101562,8593,-1562,2042,-78,17,-25
30620,-101562,8593,-1562,2042,-78,17,-25
30622,-101562,8593,-1562,2047,-78,17,-25
30624,-101562,8593,-1562,2040,-78,17,-25
30626,-101562,8593,-1562,2038,-78,17,-25
30628,-102343,9375,-781,2047,-78,17,-25
30630,-102343,9375,-781,2033,-78,17,-25
30632,-102343,9375,-781,2041,-78,17,-25
30634,-102343,9375,-781,2036,-79,17,-25
30636,-102343,9375,-781,2041,-79,17,-25
30638,-101562,7812,-781,2038,-79,17,-25
30640,-101562,7812,-781,2048,-79,17,-25
30642,-101562,7812,-781,2040,-79,18,-25
30644,-101562,7812,-781,2033,-79,18,-25
30646,-101562,7812,-781,2038,-79,18,-25
30648,-101562,7031,0,2045,-79,19,-25
30650,-101562,7031,0,2043,-79,19,-25
30652,-101562,7031,0,2036,-79,19,-25
30654,-101562,7031,0,2036,-80,20,-25
30656,-101562,7031,0,2046,-80,20,-25
30658,-100781,7812,-781,2038,-80,21,-25
30660,-100781,7812,-781,2043,-80,21,-25
30662,-100781,7812,-781,2048,-80,21,-25
30664,-100781,7812,-781,2046,-80,21,-25
30666,-100781,7812,-781,2043,-80,21,-25
30668,-101562,9375,-781,2031,-80,21,-25
30670,-101562,9375,-781,2046,-81,22,-25
30672,-101562,9375,-781,2035,-81,22,-25
30674,-101562,9375,-781,2046,-81,22,-25
30676,-101562,9375,-781,2042,-81,23,-25
30678,-100781,7812,-781,2048,-81,23,-25
30680,-100781,7812,-781,2056,-81,23,-26
30682,-100781,7812,-781,2040,-81,23,-26
30684,-100781,7812,-781,2047,-81,24,-26
30686,-100781,7812,-781,2041,-81,24,-26
30688,-100781,7812,-781,2037,-81,24,-26
30690,-100781,7812,-781,2047,-81,24,-26
30692,-100781,7812,-781,2035,-82,24,-26
30694,-100781,7812,-781,2036,-82,24,-26
30696,-100781,7812,-781,2040,-82,24,-25
30698,-100781,7812,-781,2043,-82,24,-25
30700,-100781,7812,-781,2032,-81,24,-25
30702,-100781,7812,-781,2042,-82,24,-25
30704,-100781,7812,-781,2031,-82,24,-25
30706,-100781,7812,-781,2049,-81,24,-25
30708,-100781,7812,-2343,2038,-81,24,-25
30710,-100781,7812,-2343,2038,-82,24,-25
30712,-100781,7812,-2343,2040,-82,24,-25
30714,-100781,7812,-2343,2042,-81,24,-25
30716,-100781,7812,-2343,2036,-81,24,-25
30718,-100781,7812,-781,2040,-81,24,-25
30720,-100781,7812,-781,2036,-81,24,-25
30722,-100781,7812,-781,2042,-81,23,-25
30724,-100781,7812,-781,2038,-81,23,-25
30726,-100781,7812,-781,2035,-81,23,-25
30728,-100781,9375,-781,2045,-81,23,-25
30730,-100781,9375,-781,2042,-81,23,-25
30732,-100781,9375,-781,2042,-81,23,-25
30734,-100781,9375,-781,2043,-81,23,-25
30736,-100781,9375,-781,2036,-81,23,-25
30738,-101562,8593,0,2043,-81,22,-25
30740,-101562,8593,0,2033,-81,22,-25
30742,-101562,8593,0,2031,-81,22,-25
30744,-101562,8593,0,2037,-81,22,-25
30746,-101562,8593,0,2043,-81,22,-25
30748,-100781,7031,-781,2045,-81,22,-25
30750,-100781,7031,-781,2041,-81,22,-25
30753,-100781,7031,-781,2043,-81,22,-25
30754,-100781,7031,-781,2045,-81,22,-25
30756,-100781,7031,-781,2048,-82,23,-25
30758,-100000,7812,0,2041,-82,23,-25
30760,-100000,7812,0,2040,-82,23,-25
30762,-100000,7812,0,2042,-82,23,-25
30764,-100000,7812,0,2045,-81,23,-25
30766,-100000,7812,0,2036,-81,24,-25
30768,-100000,7812,0,2040,-81,24,-25
30770,-99218,6250,0,2031,-82,24,-25
30772,-99218,6250,0,2043,-82,24,-25
30774,-99218,6250,0,2041,-82,24,-25
30776,-99218,6250,0,2037,-81,24,-25
30778,-99218,6250,0,2042,-81,25,-25
30780,-100000,7812,0,2036,-82,25,-25
30782,-100000,7812,0,2042,-82,25,-26
30784,-100000,7812,0,2040,-82,26,-26
30786,-100000,7812,0,2038,-82,26,-26
30788,-100000,7812,0,2036,-82,26,-25
30790,-100000,8593,781,2035,-82,27,-25
30792,-100000,8593,781,2037,-82,27,-25
30794,-100000,8593,781,2047,-82,27,-25
30796,-100000,8593,781,2043,-82,27,-26
30798,-100000,8593,781,2037,-82,28,-26
30800,-100000,8593,781,2035,-82,28,-26
30802,-100000,8593,781,2032,-82,28,-26
30804,-100000,8593,781,2040,-82,29,-26
30806,-100000,8593,781,2040,-82,29,-25
30808,-100000,8593,781,2048,-81,30,-25
30810,-100000,8593,0,2047,-81,30,-25
30812,-100000,8593,0,2046,-82,30,-25
30814,-100000,8593,0,2038,-82,31,-25
30816,-100000,8593,0,2036,-81,31,-25
30818,-100000,8593,0,2046,-81,31,-25
30820,-100781,8593,0,2042,-81,31,-25
30823,-100781,8593,0,2053,-81,31,-25
30824,-100781,8593,0,2038,-81,31,-25
30826,-100781,8593,0,2051,-81,31,-26
30828,-100781,8593,0,2032,-81,31,-26
30830,-100000,8593,1562,2049,-81,31,-26
30832,-100000,8593,1562,2043,-81,31,-25
30834,-100000,8593,1562,2031,-81,31,-25
30836,-100000,8593,1562,2041,-81,31,-25
30838,-100000,8593,1562,2038,-81,31,-25
30840,-100000,7812,781,2033,-81,31,-25
30842,-100000,7812,781,2051,-81,31,-25
30844,-100000,7812,781,2043,-81,31,-25
30846,-100000,7812,781,2041,-80,31,-25
30848,-100000,7812,781,2041,-80,31,-25
30850,-100000,8593,1562,2040,-80,31,-25
30852,-100000,8593,1562,2036,-80,30,-24
30854,-100000,8593,1562,2053,-80,30,-24
30856,-100000,8593,1562,2037,-80,30,-24
30858,-100000,8593,1562,2043,-80,30,-24
30860,-100000,8593,781,2038,-80,30,-24
30862,-100000,8593,781,2049,-80,30,-24
30864,-100000,8593,781,2041,-80,30,-24
30866,-100000,8593,781,2036,-79,30,-24
30868,-100000,8593,781,2031,-79,30,-24
30870,-100000,7812,781,2040,-79,30,-24
30872,-100000,7812,781,2035,-79,30,-24
30874,-100000,7812,781,2037,-79,30,-24
30876,-100000,7812,781,2040,-79,30,-24
30878,-100000,7812,781,2036,-79,29,-24
30880,-100000,7812,781,2040,-79,29,-24
30882,-100000,7812,781,2045,-79,29,-24
30884,-100000,7812,781,2032,-79,29,-24
30886,-100000,7812,781,2043,-79,29,-24
30888,-100000,7812,781,2041,-79,30,-24
30891,-99218,7031,781,2042,-79,30,-24
30892,-99218,7031,781,2045,-78,30,-24
30894,-99218,7031,781,2049,-78,30,-24
30896,-99218,7031,781,2056,-78,30,-24
30898,-99218,7031,781,2038,-78,30,-24
30900,-99218,7812,781,2046,-78,30,-25
30902,-99218,7812,781,2037,-78,31,-25
30904,-99218,7812,781,2030,-78,31,-25
30906,-99218,7812,781,2047,-78,31,-25
30908,-99218,7812,781,2033,-77,31,-25
30910,-100000,7812,781,2043,-77,32,-25
30912,-100000,7812,781,2038,-77,32,-25
30914,-100000,7812,781,2042,-77,32,-25
30916,-100000,7812,781,2037,-77,33,-25
30918,-100000,7812,781,2041,-77,33,-25
30920,-99218,7812,781,2051,-77,33,-25
30922,-99218,7812,781,2042,-77,34,-25
30924,-99218,7812,781,2051,-77,34,-25
30926,-99218,7812,781,2031,-77,34,-25
30928,-99218,7812,781,2035,-77,34,-25
30930,-100000,8593,0,2033,-77,35,-25
30932,-100000,8593,0,2040,-77,35,-25
30934,-100000,8593,0,2038,-77,35,-25
30936,-100000,8593,0,2041,-77,35,-25
30938,-100000,8593,0,2041,-76,35,-25
30940,-100000,8593,781,2042,-76,35,-25
30942,-100000,8593,781,2042,-76,35,-25
30944,-100000,8593,781,2046,-76,35,-25
30946,-100000,8593,781,2038,-76,36,-25
30948,-100000,8593,781,2032,-76,36,-25
30950,-100000,8593,781,2043,-75,36,-25
30953,-98437,8593,781,2047,-75,36,-25
30954,-98437,8593,781,2041,-75,36,-25
30956,-98437,8593,781,2052,-75,36,-25
30958,-98437,8593,781,2046,-75,36,-25
30960,-98437,8593,781,2041,-75,36,-25
30962,-100000,8593,781,2049,-75,36,-25
30964,-100000,8593,781,2038,-74,36,-25
30966,-100000,8593,781,2041,-74,36,-25
30968,-100000,8593,781,2037,-74,35,-25
30970,-100000,8593,781,2043,-74,35,-25
30972,-98437,7031,0,2041,-74,35,-25
30974,-98437,7031,0,2041,-73,35,-25
30976,-98437,7031,0,2040,-73,35,-25
30978,-98437,7031,0,2043,-73,35,-25
30980,-98437,7031,0,2051,-73,35,-25
30982,-99218,7812,1562,2040,-73,34,-24
30984,-99218,7812,1562,2045,-73,34,-24
30986,-99218,7812,1562,2049,-72,34,-25
30988,-99218,7812,1562,2038,-72,34,-25
30990,-99218,7812,1562,2040,-72,34,-25
30992,-98437,8593,2343,2031,-72,34,-25
30994,-98437,8593,2343,2043,-72,34,-25
30996,-98437,8593,2343,2045,-72,34,-25
30998,-98437,8593,2343,2041,-72,34,-25
31000,-98437,8593,2343,2045,-71,33,-25
31002,-98437,8593,781,2041,-71,33,-25
31004,-98437,8593,781,2041,-71,33,-25
31006,-98437,8593,781,2038,-71,33,-24
31008,-98437,8593,781,2035,-71,33,-25
31010,-98437,8593,781,2041,-71,33,-25
31013,-99218,8593,781,2037,-71,33,-25
31014,-99218,8593,781,2046,-70,33,-24
31016,-99218,8593,781,2041,-70,33,-24
31018,-99218,8593,781,2048,-70,33,-24
31020,-99218,8593,781,2033,-70,33,-24
31022,-98437,8593,3125,2040,-70,34,-24
31024,-98437,8593,3125,2053,-69,34,-24
31026,-98437,8593,3125,2043,-69,34,-24
31028,-98437,8593,3125,2042,-69,34,-24
31030,-98437,8593,3125,2043,-69,34,-24
31032,-98437,7812,1562,2041,-69,34,-24
31034,-98437,7812,1562,2043,-69,35,-24
31036,-98437,7812,1562,2051,-68,35,-24
31038,-98437,7812,1562,2032,-68,36,-24
31040,-98437,7812,1562,2047,-68,36,-24
31042,-98437,7031,1562,2045,-68,36,-24
31044,-98437,7031,1562,2041,-68,37,-24
31046,-98437,7031,1562,2046,-68,37,-24
31048,-98437,7031,1562,2031,-67,37,-24
31050,-98437,7031,1562,2049,-67,38,-24
31052,-98437,7031,781,2041,-67,38,-24
31054,-98437,7031,781,2041,-67,38,-24
31056,-98437,7031,781,2036,-67,38,-24
31058,-98437,7031,781,2048,-67,39,-24
31060,-98437,7031,781,2046,-66,39,-24
31062,-98437,8593,781,2043,-66,39,-24
31064,-98437,8593,781,2031,-66,40,-24
31066,-98437,8593,781,2031,-66,40,-24
31068,-98437,8593,781,2049,-66,40,-24
31070,-98437,8593,781,2032,-66,40,-24
31072,-97656,7812,1562,2041,-66,40,-24
31074,-97656,7812,1562,2041,-65,40,-24
31076,-97656,7812,1562,2031,-65,41,-24
31078,-97656,7812,1562,2033,-65,41,-24
31080,-97656,7812,1562,2054,-65,41,-24
31082,-99218,9375,3125,2032,-65,41,-24
31084,-99218,9375,3125,2040,-65,41,-24
31086,-99218,9375,3125,2042,-65,41,-24
31088,-99218,9375,3125,2033,-65,40,-24
31090,-99218,9375,3125,2041,-65,40,-24
31092,-98437,9375,781,2046,-64,40,-24
31094,-98437,9375,781,2052,-64,40,-24
31096,-98437,9375,781,2041,-64,40,-25
31098,-98437,9375,781,2036,-64,40,-25
31100,-98437,9375,781,2037,-64,40,-25
31102,-98437,8593,2343,2031,-63,40,-25
31104,-98437,8593,2343,2046,-63,39,-24
31106,-98437,8593,2343,2043,-63,39,-24
31108,-98437,8593,2343,2040,-63,39,-24
31110,-98437,8593,2343,2042,-62,39,-24
31112,-98437,8593,2343,2046,-62,39,-24
31114,-98437,10156,2343,2032,-62,39,-24
31116,-98437,10156,2343,2033,-62,39,-24
31118,-98437,10156,2343,2038,-62,39,-24
31120,-98437,10156,2343,2042,-62,38,-24
31122,-98437,10156,2343,2041,-61,38,-24
31124,-97656,7031,1562,2042,-61,38,-24
31126,-97656,7031,1562,2041,-61,38,-24
31128,-97656,7031,1562,2033,-61,38,-24
31130,-97656,7031,1562,2033,-61,37,-24
31132,-97656,7031,1562,2041,-61,37,-24
31134,-98437,7812,1562,2043,-61,37,-24
31136,-98437,7812,1562,2046,-60,37,-24
31138,-98437,7812,1562,2040,-60,37,-24
31140,-98437,7812,1562,2042,-60,37,-24
31142,-98437,7812,1562,2051,-60,37,-24
31144,-99218,8593,2343,2041,-59,37,-24
31146,-99218,8593,2343,2040,-59,37,-24
31148,-99218,8593,2343,2049,-59,37,-24
31150,-99218,8593,2343,2040,-59,37,-24
31152,-99218,8593,2343,2049,-58,37,-24
31154,-98437,7812,781,2033,-58,37,-24
31156,-98437,7812,781,2045,-58,37,-24
31158,-98437,7812,781,2046,-58,37,-24
31161,-98437,7812,781,2045,-58,37,-24
31162,-98437,7812,781,2053,-57,38,-24
31164,-98437,7031,1562,2049,-57,38,-24
31166,-98437,7031,1562,2041,-57,38,-25
31168,-98437,7031,1562,2038,-57,38,-25
31170,-98437,7031,1562,2037,-57,39,-25
31172,-98437,7031,1562,2043,-57,39,-25
31174,-98437,7812,1562,2040,-56,39,-25
31176,-98437,7812,1562,2048,-56,39,-25
31178,-98437,7812,1562,2033,-56,40,-25
31180,-98437,7812,1562,2033,-56,40,-25
31182,-98437,7812,1562,2032,-55,40,-25
31184,-96875,7812,1562,2043,-55,41,-25
31186,-96875,7812,1562,2045,-55,41,-25
31188,-96875,7812,1562,2046,-55,41,-25
31190,-96875,7812,1562,2043,-55,41,-25
31192,-96875,7812,1562,2047,-55,42,-25
31194,-97656,7812,1562,2033,-55,42,-25
31196,-97656,7812,1562,2043,-54,42,-25
31198,-97656,7812,1562,2038,-54,42,-25
31200,-97656,7812,1562,2032,-54,43,-25
31202,-97656,7812,1562,2038,-54,43,-26
31204,-98437,9375,2343,2046,-54,43,-26
31206,-98437,9375,2343,2047,-54,43,-26
31208,-98437,9375,2343,2031,-53,43,-26
31210,-98437,9375,2343,2041,-53,43,-25
31212,-98437,9375,2343,2041,-53,42,-25
31214,-98437,8593,1562,2041,-53,42,-26
31216,-98437,8593,1562,2047,-52,42,-26
31218,-98437,8593,1562,2048,-52,42,-26
31220,-98437,8593,1562,2035,-52,42,-26
31222,-98437,8593,1562,2048,-52,42,-26
31224,-98437,9375,2343,2036,-52,41,-26
31226,-98437,9375,2343,2033,-51,41,-26
31228,-98437,9375,2343,2031,-51,41,-26
31230,-98437,9375,2343,2037,-51,41,-26
31232,-98437,9375,2343,2035,-51,41,-26
31234,-98437,9375,1562,2038,-50,41,-26
31251,-98437,8593,781,2036,-49,39,-25
31252,-98437,8593,781,2041,-49,39,-25
31254,-98437,8593,781,2041,-49,39,-25
31255,-98437,8593,1562,2046,-49,39,-25
31257,-98437,8593,1562,2033,-49,39,-25
31258,-98437,8593,1562,2041,-48,38,-25
31260,-98437,8593,1562,2051,-48,38,-25
31261,-98437,8593,1562,2040,-48,38,-25
31263,-98437,8593,1562,2042,-48,38,-25
31264,-98437,7031,-781,2032,-48,38,-25
31266,-98437,7031,-781,2040,-48,37,-25
31267,-98437,7031,-781,2033,-48,37,-25
31269,-98437,7031,-781,2046,-48,37,-25
31270,-98437,7031,-781,2037,-48,37,-25
31272,-98437,7031,-781,2041,-48,37,-25
31273,-98437,7031,-781,2047,-48,37,-25
31275,-97656,7031,0,2040,-48,37,-25
31276,-97656,7031,0,2042,-47,37,-25
31278,-97656,7031,0,2041,-47,37,-25
31279,-97656,7031,0,2041,-47,37,-25
31281,-97656,7031,0,2042,-47,37,-25
31282,-97656,7031,0,2040,-47,37,-25
31284,-97656,7031,0,2032,-47,37,-25
31285,-97656,7812,781,2051,-47,37,-25
31287,-97656,7812,781,2035,-47,37,-25
31288,-97656,7812,781,2036,-47,38,-25
31290,-97656,7812,781,2040,-47,38,-25
31291,-97656,7812,781,2040,-47,38,-25
31293,-97656,7812,781,2052,-46,38,-25
31294,-98437,8593,781,2038,-46,39,-25
31296,-98437,8593,781,2036,-46,39,-25
31298,-98437,8593,781,2038,-46,39,-26
31300,-98437,8593,781,2033,-46,39,-25
31302,-98437,8593,781,2036,-45,39,-26
31304,-98437,8593,781,2038,-45,40,-26
31306,-98437,7812,1562,2040,-45,40,-26
31308,-98437,7812,1562,2043,-45,40,-26
31310,-98437,7812,1562,2049,-45,40,-26
31312,-98437,7812,1562,2036,-45,40,-26
31314,-98437,7812,1562,2041,-45,40,-26
31316,-98437,8593,2343,2038,-45,41,-26
31318,-98437,8593,2343,2036,-45,41,-26
31320,-98437,8593,2343,2040,-45,41,-26
31322,-98437,8593,2343,2031,-44,41,-26
31324,-98437,8593,2343,2046,-44,42,-26
31326,-98437,8593,2343,2033,-44,42,-26
31328,-98437,8593,2343,2040,-44,42,-26
31330,-98437,8593,2343,2033,-44,42,-26
31332,-98437,8593,2343,2043,-44,42,-26
31334,-98437,8593,2343,2049,-44,42,-26
31336,-98437,8593,781,2038,-44,42,-26
31338,-98437,8593,781,2040,-43,42,-26
31340,-98437,8593,781,2035,-43,42,-26
31342,-98437,8593,781,2037,-43,42,-26
31344,-98437,8593,781,2046,-43,42,-26
31346,-100000,10156,0,2046,-43,41,-26
31348,-100000,10156,0,2040,-43,42,-26
31350,-100000,10156,0,2045,-43,41,-26
31352,-100000,10156,0,2043,-43,41,-26
31354,-100000,10156,0,2038,-43,41,-26
31356,-98437,9375,-781,2041,-43,41,-26
31358,-98437,9375,-781,2036,-43,41,-26
31360,-98437,9375,-781,2032,-42,40,-26
31362,-98437,9375,-781,2038,-42,40,-26
31365,-98437,9375,-781,2036,-42,40,-26
31366,-98437,9375,0,2035,-42,39,-26
31368,-98437,9375,0,2051,-42,39,-26
31370,-98437,9375,0,2031,-42,39,-26
31372,-98437,9375,0,2045,-42,39,-26
31374,-98437,9375,0,2043,-42,38,-26
31376,-98437,7812,781,2042,-42,38,-26
31378,-98437,7812,781,2041,-42,38,-26
31380,-98437,7812,781,2040,-42,38,-26
31382,-98437,7812,781,2048,-41,38,-26
31384,-98437,7812,781,2042,-42,38,-26
31386,-98437,9375,781,2053,-42,37,-26
31388,-98437,9375,781,2041,-41,37,-26
31390,-98437,9375,781,2036,-41,37,-26
31392,-98437,9375,781,2038,-41,37,-26
31394,-98437,9375,781,2046,-41,37,-26
31396,-98437,7812,0,2047,-41,37,-26
31398,-98437,7812,0,2049,-41,36,-26
31400,-98437,7812,0,2043,-41,36,-26
31402,-98437,7812,0,2040,-41,36,-26
31404,-98437,7812,0,2041,-41,36,-26
31406,-98437,7812,-1562,2045,-41,36,-26
31408,-98437,7812,-1562,2036,-41,36,-26
31410,-98437,7812,-1562,2041,-41,36,-26
31412,-98437,7812,-1562,2051,-41,36,-26
31414,-98437,7812,-1562,2035,-41,36,-26
31416,-99218,7812,781,2031,-41,36,-26
31418,-99218,7812,781,2036,-41,36,-26
31420,-99218,7812,781,2041,-40,36,-26
31422,-99218,7812,781,2038,-40,36,-26
31424,-99218,7812,781,2046,-40,36,-26
31426,-99218,7812,0,2046,-40,36,-26
31428,-99218,7812,0,2052,-40,37,-26
31430,-99218,7812,0,2033,-40,37,-26
31432,-99218,7812,0,2032,-40,37,-27
31434,-99218,7812,0,2048,-40,37,-27
31436,-99218,7812,0,2051,-40,38,-26
31438,-99218,7812,0,2042,-40,38,-27
31440,-99218,7812,0,2051,-40,38,-27
31442,-99218,7812,0,2053,-40,39,-27
31444,-99218,7812,0,2035,-40,39,-27
31446,-98437,8593,781,2036,-40,39,-27
31448,-98437,8593,781,2038,-40,39,-27
31450,-98437,8593,781,2033,-40,40,-27
31452,-98437,8593,781,2031,-40,40,-27
31454,-98437,8593,781,2042,-39,40,-27
31456,-98437,8593,781,2046,-39,40,-27
31459,-98437,8593,-1562,2038,-39,40,-27
31461,-98437,8593,-1562,2041,-39,40,-27
31462,-98437,8593,-1562,2031,-39,40,-27
31464,-98437,8593,-1562,2054,-39,40,-27
31466,-98437,8593,-1562,2030,-39,40,-27
31469,-99218,8593,0,2045,-39,40,-27
31470,-99218,8593,0,2042,-39,39,-27
31472,-99218,8593,0,2033,-39,39,-27
31474,-99218,8593,0,2046,-39,39,-27
31476,-99218,8593,0,2040,-38,39,-27
31478,-99218,8593,-781,2045,-38,39,-27
31480,-99218,8593,-781,2038,-38,39,-27
31482,-99218,8593,-781,2038,-38,38,-28
31484,-99218,8593,-781,2043,-38,38,-28
31486,-99218,8593,-781,2035,-38,38,-28
31488,-100000,9375,-1562,2033,-38,38,-28
31490,-100000,9375,-1562,2042,-38,37,-27
31492,-100000,9375,-1562,2041,-38,37,-27
31494,-100000,9375,-1562,2041,-38,37,-28
31496,-100000,9375,-1562,2042,-38,36,-28
31498,-98437,7812,-1562,2048,-38,36,-28
31500,-98437,7812,-1562,2051,-38,36,-28
31502,-98437,7812,-1562,2047,-38,35,-28
31504,-98437,7812,-1562,2037,-38,35,-28
31506,-98437,7812,-1562,2033,-38,35,-28
31508,-100000,8593,-781,2038,-38,35,-28
31510,-100000,8593,-781,2038,-37,34,-28
31512,-100000,8593,-781,2038,-37,34,-27
31514,-100000,8593,-781,2038,-37,34,-27
31516,-100000,8593,-781,2037,-37,34,-28
31518,-99218,8593,781,2036,-37,33,-28
31520,-99218,8593,781,2046,-37,33,-28
31522,-99218,8593,781,2042,-37,33,-28
31525,-99218,8593,781,2038,-37,33,-28
31526,-99218,8593,781,2046,-37,33,-28
31528,-99218,7812,0,2037,-37,33,-28
31530,-99218,7812,0,2037,-37,32,-28
31532,-99218,7812,0,2049,-37,32,-28
31534,-99218,7812,0,2047,-37,32,-28
31536,-99218,7812,0,2038,-37,32,-28
31538,-100000,7812,0,2041,-37,32,-29
31540,-100000,7812,0,2040,-37,32,-29
31542,-100000,7812,0,2040,-38,32,-29
31544,-100000,7812,0,2031,-38,32,-29
31546,-100000,7812,0,2033,-38,32,-29
31548,-99218,7031,0,2045,-38,33,-29
31550,-99218,7031,0,2040,-38,33,-29
31552,-99218,7031,0,2031,-38,33,-29
31554,-99218,7031,0,2035,-38,33,-29
31556,-99218,7031,0,2041,-38,33,-29
31558,-99218,8593,-1562,2038,-38,33,-29
31560,-99218,8593,-1562,2031,-38,33,-29
31562,-99218,8593,-1562,2032,-37,33,-29
31564,-99218,8593,-1562,2041,-38,33,-30
31566,-99218,8593,-1562,2041,-38,34,-30
31568,-100000,8593,-1562,2043,-38,34,-30
31570,-100000,8593,-1562,2041,-38,34,-30
31572,-100000,8593,-1562,2035,-38,34,-30
31574,-100000,8593,-1562,2036,-38,34,-30
31576,-100000,8593,-1562,2045,-38,34,-30
31578,-100000,9375,-781,2033,-38,35,-30
31580,-100000,9375,-781,2038,-38,35,-30
31582,-100000,9375,-781,2033,-38,35,-30
31584,-100000,9375,-781,2046,-38,35,-30
31586,-100000,9375,-781,2046,-38,35,-30
31588,-100781,10156,-781,2041,-38,35,-30
31591,-100781,10156,-781,2047,-38,35,-30
31592,-100781,10156,-781,2045,-38,35,-30
31594,-100781,10156,-781,2036,-39,35,-30
31596,-100781,10156,-781,2041,-39,35,-30
31598,-100000,9375,-781,2041,-38,35,-31
31600,-100000,9375,-781,2040,-38,35,-31
31602,-100000,9375,-781,2038,-38,35,-31
31604,-100000,9375,-781,2042,-38,35,-31
31606,-100000,9375,-781,2035,-39,34,-31
31608,-100000,10156,-1562,2054,-39,34,-31
31610,-100000,10156,-1562,2041,-39,34,-31
31612,-100000,10156,-1562,2042,-39,34,-31
31614,-100000,10156,-1562,2040,-39,34,-31
31616,-100000,10156,-1562,2038,-39,33,-31
31618,-100781,10156,-1562,2035,-39,33,-31
31620,-100781,10156,-1562,2046,-39,33,-31
31622,-100781,10156,-1562,2041,-39,33,-31
31624,-100781,10156,-1562,2031,-39,32,-31
31626,-100781,10156,-1562,2041,-39,32,-31
31628,-100781,10156,-1562,2040,-39,32,-31
31630,-100000,9375,-2343,2048,-39,31,-30
31632,-100000,9375,-2343,2043,-39,31,-30
31634,-100000,9375,-2343,2036,-39,31,-30
31636,-100000,9375,-2343,2042,-40,31,-30
31638,-100000,9375,-2343,2032,-40,31,-31
31640,-100000,9375,-1562,2041,-40,30,-31
31642,-100000,9375,-1562,2033,-40,30,-31
31644,-100000,9375,-1562,2032,-40,29,-30
31646,-100000,9375,-1562,2040,-40,29,-31
31648,-100000,9375,-1562,2032,-40,29,-31
31650,-100000,9375,-1562,2048,-40,29,-31
31652,-100000,9375,-1562,2033,-40,29,-31
31654,-100000,9375,-1562,2041,-40,29,-31
31656,-100000,9375,-1562,2033,-40,28,-31
31658,-100000,9375,-1562,2041,-40,28,-31
31661,-100000,7031,-3125,2041,-40,28,-31
31662,-100000,7031,-3125,2031,-41,28,-31
31664,-100000,7031,-3125,2043,-41,28,-31
31666,-100000,7031,-3125,2045,-41,28,-31
31668,-100000,7031,-3125,2040,-41,28,-31
31670,-100000,7812,-781,2032,-41,28,-31
31672,-100000,7812,-781,2043,-41,28,-31
31674,-100000,7812,-781,2047,-41,28,-31
31676,-100000,7812,-781,2040,-41,29,-31
31678,-100000,7812,-781,2031,-41,29,-31
31680,-100000,9375,-781,2042,-41,29,-32
31682,-100000,9375,-781,2043,-41,29,-32
31684,-100000,9375,-781,2041,-42,29,-32
31686,-100000,9375,-781,2038,-42,29,-32
31688,-100000,9375,-781,2041,-42,29,-32
31690,-100000,8593,-781,2038,-42,29,-32
31692,-100000,8593,-781,2038,-42,29,-32
31694,-100000,8593,-781,2038,-42,30,-32
31696,-100000,8593,-781,2042,-42,30,-32
31698,-100000,8593,-781,2031,-42,30,-32
31700,-100000,9375,-1562,2035,-42,30,-32
31702,-100000,9375,-1562,2032,-42,30,-32
31704,-100000,9375,-1562,2038,-42,30,-32
31706,-100000,9375,-1562,2047,-42,30,-33
31708,-100000,9375,-1562,2041,-42,30,-33
31710,-100781,10156,-781,2041,-42,30,-33
31712,-100781,10156,-781,2046,-42,31,-33
31714,-100781,10156,-781,2045,-43,31,-33
31716,-100781,10156,-781,2045,-43,31,-33
31718,-100781,10156,-781,2040,-43,31,-33
31720,-100781,10156,-1562,2038,-43,31,-33
31722,-100781,10156,-1562,2040,-43,31,-33
31724,-100781,10156,-1562,2045,-43,31,-33
31726,-100781,10156,-1562,2037,-43,31,-33
31728,-100781,10156,-1562,2040,-43,31,-33
31730,-100781,9375,-781,2049,-43,30,-33
31745,-100781,9375,-781,2040,-44,29,-33
31746,-100781,9375,-781,2046,-44,28,-33
31748,-100781,9375,-781,2041,-44,28,-33
31749,-100781,9375,-781,2036,-44,28,-33
31751,-100781,9375,-1562,2040,-44,28,-32
31752,-100781,9375,-1562,2033,-44,27,-33
31753,-100781,9375,-1562,2035,-45,27,-33
31755,-100781,9375,-1562,2046,-45,27,-33
31756,-100781,9375,-1562,2040,-45,27,-33
31758,-100781,9375,-1562,2047,-45,26,-32
31759,-100781,9375,-1562,2032,-45,26,-32
31761,-100781,10156,-1562,2040,-45,26,-32
31762,-100781,10156,-1562,2035,-45,26,-32
31764,-100781,10156,-1562,2045,-45,26,-32
31766,-100781,10156,-1562,2040,-45,25,-33
31767,-100781,10156,-1562,2038,-45,25,-33
31769,-100781,10156,-1562,2031,-45,25,-33
31770,-100781,8593,0,2040,-45,25,-32
31772,-100781,8593,0,2040,-45,24,-32
31773,-100781,8593,0,2051,-45,24,-32
31775,-100781,8593,0,2038,-45,24,-32
31776,-100781,8593,0,2045,-45,24,-32
31778,-100781,8593,0,2042,-45,24,-32
31779,-100781,8593,0,2032,-45,24,-32
31780,-100781,8593,-1562,2037,-45,24,-32
31782,-100781,8593,-1562,2033,-46,24,-32
31784,-100781,8593,-1562,2032,-46,23,-32
31787,-100781,8593,-1562,2041,-46,23,-32
31788,-100781,8593,-1562,2048,-46,23,-33
31790,-100781,8593,-2343,2037,-46,23,-33
31792,-100781,8593,-2343,2042,-46,23,-33
31794,-100781,8593,-2343,2043,-47,23,-33
31796,-100781,8593,-2343,2046,-47,23,-33
31798,-100781,8593,-2343,2036,-47,23,-33
31800,-100781,8593,-2343,2040,-47,24,-33
31802,-100781,8593,-1562,2051,-47,24,-33
31804,-100781,8593,-1562,2041,-47,24,-33
31806,-100781,8593,-1562,2051,-47,24,-33
31808,-100781,8593,-1562,2045,-47,24,-33
31810,-100781,8593,-1562,2041,-48,24,-33
31812,-100781,8593,0,2043,-48,24,-33
31814,-100781,8593,0,2043,-48,24,-33
31816,-100781,8593,0,2049,-48,25,-33
31818,-100781,8593,0,2041,-48,25,-33
31820,-100781,8593,0,2042,-48,25,-33
31822,-100781,8593,-2343,2035,-48,25,-33
31824,-100781,8593,-2343,2049,-48,26,-33
31826,-100781,8593,-2343,2043,-48,26,-33
31828,-100781,8593,-2343,2045,-49,26,-33
31830,-100781,8593,-2343,2046,-49,26,-33
31832,-100000,9375,-1562,2043,-49,26,-33
31834,-100000,9375,-1562,2043,-49,27,-34
31836,-100000,9375,-1562,2036,-50,27,-34
31838,-100000,9375,-1562,2040,-50,27,-34
31840,-100000,9375,-1562,2049,-50,27,-34
31842,-100781,9375,-1562,2041,-50,27,-34
31844,-100781,9375,-1562,2043,-50,27,-34
31846,-100781,9375,-1562,2045,-50,27,-34
31848,-100781,9375,-1562,2037,-50,27,-34
31850,-100781,9375,-1562,2033,-50,27,-34
31852,-100781,10156,-781,2038,-50,27,-34
31854,-100781,10156,-781,2040,-50,27,-34
31856,-100781,10156,-781,2046,-51,27,-34
31858,-100781,10156,-781,2040,-50,26,-34
31860,-100781,10156,-781,2052,-50,26,-34
31862,-100000,10156,-1562,2040,-51,26,-33
31864,-100000,10156,-1562,2041,-51,26,-33
31866,-100000,10156,-1562,2042,-51,26,-33
31868,-100000,10156,-1562,2041,-50,26,-33
31870,-100000,10156,-1562,2051,-51,25,-33
31872,-100000,9375,-781,2041,-51,25,-33
31874,-100000,9375,-781,2036,-51,25,-33
31877,-100000,9375,-781,2041,-51,24,-33
31878,-100000,9375,-781,2041,-51,24,-33
31880,-100000,9375,-781,2038,-51,24,-33
31882,-100781,10156,0,2042,-51,24,-33
31884,-100781,10156,0,2041,-51,24,-33
31886,-100781,10156,0,2051,-51,23,-33
31888,-100781,10156,0,2045,-51,23,-33
31890,-100781,10156,0,2038,-51,22,-33
31892,-100781,9375,-1562,2041,-51,22,-33
31894,-100781,9375,-1562,2041,-52,22,-33
31896,-100781,9375,-1562,2038,-52,22,-33
31898,-100781,9375,-1562,2036,-52,22,-33
31900,-100781,9375,-1562,2046,-52,22,-33
31902,-100781,9375,-1562,2037,-52,22,-32
31904,-100781,9375,-1562,2033,-52,22,-32
31906,-100781,9375,-1562,2036,-52,22,-32
31908,-100781,9375,-1562,2037,-52,22,-33
31910,-100781,9375,-1562,2037,-52,22,-33
31912,-100781,9375,-1562,2031,-52,22,-33
31914,-100781,9375,-1562,2028,-52,22,-33
31916,-100781,9375,-1562,2038,-52,22,-33
31918,-100781,9375,-1562,2038,-52,22,-33
31920,-100781,9375,-1562,2042,-53,22,-33
31922,-100781,9375,-2343,2048,-53,22,-33
31924,-100781,9375,-2343,2041,-53,22,-33
31926,-100781,9375,-2343,2046,-53,22,-33
31928,-100781,9375,-2343,2040,-53,22,-33
31930,-100781,9375,-2343,2048,-53,22,-33
31932,-101562,8593,-1562,2045,-53,22,-33
31934,-101562,8593,-1562,2036,-53,22,-33
31936,-101562,8593,-1562,2035,-53,22,-33
31938,-101562,8593,-1562,2038,-54,22,-33
31940,-101562,8593,-1562,2040,-54,22,-33
31942,-100000,7812,-2343,2041,-54,22,-33
31944,-100000,7812,-2343,2031,-54,22,-33
31946,-100000,7812,-2343,2042,-54,23,-33
31948,-100000,7812,-2343,2036,-54,23,-33
31950,-100000,7812,-2343,2036,-54,23,-33
31953,-100781,9375,-1562,2042,-54,23,-33
31954,-100781,9375,-1562,2032,-54,24,-33
31956,-100781,9375,-1562,2033,-54,24,-33
31958,-100781,9375,-1562,2045,-54,24,-33
31960,-100781,9375,-1562,2036,-54,24,-33
31962,-100781,9375,-781,2048,-54,25,-33
31964,-100781,9375,-781,2037,-54,25,-33
31966,-100781,9375,-781,2045,-55,25,-33
31968,-100781,9375,-781,2045,-55,25,-33
31970,-100781,9375,-781,2037,-55,25,-33
31972,-100781,9375,-781,2042,-55,25,-33
31974,-100000,8593,-781,2051,-55,25,-33
31976,-100000,8593,-781,2041,-55,25,-33
31978,-100000,8593,-781,2032,-55,25,-32
31980,-100000,8593,-781,2038,-55,25,-32
31982,-100000,8593,-781,2037,-55,25,-32
31984,-100000,10156,-1562,2042,-55,25,-32
31986,-100000,10156,-1562,2031,-55,25,-32
31988,-100000,10156,-1562,2033,-55,25,-32
31990,-100000,10156,-1562,2041,-56,25,-32
31992,-100000,10156,-1562,2045,-56,25,-32
31994,-100000,10156,-781,2045,-56,25,-32
31996,-100000,10156,-781,2046,-56,25,-32
31998,-100000,10156,-781,2043,-56,24,-32
32000,-100000,10156,-781,2031,-56,24,-32
32002,-100000,10156,-781,2038,-56,24,-32
32004,-100000,10156,-1562,2040,-56,24,-32
32006,-100000,10156,-1562,2033,-56,23,-32
32008,-100000,10156,-1562,2035,-56,23,-32
32010,-100000,10156,-1562,2049,-56,23,-32
32012,-100000,10156,-1562,2043,-56,22,-32
32014,-100781,9375,-781,2047,-56,22,-32
32016,-100781,9375,-781,2035,-57,22,-32
32018,-100781,9375,-781,2036,-57,22,-32
32020,-100781,9375,-781,2047,-57,22,-32
32022,-100781,9375,-781,2042,-57,21,-32
32024,-100781,9375,-781,2045,-57,21,-32
32026,-100781,9375,-781,2058,-57,21,-32
32039,-100000,9375,-1562,2045,-57,20,-32
32041,-100000,9375,-1562,2038,-57,20,-32
32043,-100000,9375,-1562,2036,-57,20,-32
32044,-100000,8593,-1562,2040,-57,20,-32
32046,-100000,8593,-1562,2048,-57,20,-32
32047,-100000,8593,-1562,2031,-57,20,-32
32049,-100000,8593,-1562,2031,-57,20,-32
32050,-100000,8593,-1562,2037,-57,20,-32
32052,-100000,8593,-1562,2033,-57,20,-31
32053,-100000,8593,-1562,2041,-57,20,-31
32055,-101562,9375,-781,2038,-57,20,-31
32056,-101562,9375,-781,2036,-57,20,-31
32057,-101562,9375,-781,2035,-58,20,-32
32059,-101562,9375,-781,2038,-58,20,-32
32060,-101562,9375,-781,2038,-58,20,-32
32062,-101562,9375,-781,2033,-58,21,-32
32063,-100000,9375,-2343,2045,-58,21,-32
32065,-100000,9375,-2343,2045,-58,21,-32
32067,-100000,9375,-2343,2038,-58,21,-32
32068,-100000,9375,-2343,2042,-58,21,-32
32070,-100000,9375,-2343,2047,-58,21,-32
32071,-100000,9375,-2343,2051,-58,21,-32
32073,-100000,9375,-2343,2046,-58,21,-32
32074,-100781,8593,0,2047,-58,22,-33
32076,-100781,8593,0,2036,-58,22,-33
32079,-100781,8593,0,2040,-58,22,-33
32080,-100781,8593,0,2041,-59,22,-33
32082,-100781,8593,0,2033,-58,22,-33
32084,-100000,9375,-781,2043,-58,22,-33
32086,-100000,9375,-781,2040,-58,22,-33
32088,-100000,9375,-781,2048,-58,23,-33
32090,-100000,9375,-781,2031,-58,23,-32
32092,-100000,9375,-781,2036,-59,23,-32
32094,-100000,10156,781,2045,-59,23,-32
32096,-100000,10156,781,2041,-58,23,-32
32098,-100000,10156,781,2038,-59,24,-32
32100,-100000,10156,781,2035,-59,24,-32
32102,-100000,10156,781,2036,-59,24,-32
32104,-100781,10156,-781,2041,-59,24,-32
32106,-100781,10156,-781,2031,-59,24,-32
32108,-100781,10156,-781,2041,-59,24,-32
32110,-100781,10156,-781,2042,-59,24,-32
32112,-100781,10156,-781,2045,-59,24,-32
32114,-100000,10937,-781,2038,-59,24,-32
32116,-100000,10937,-781,2041,-59,24,-32
32118,-100000,10937,-781,2042,-59,24,-32
32120,-100000,10937,-781,2043,-59,23,-32
32122,-100000,10937,-781,2042,-59,23,-32
32124,-100000,10156,-781,2049,-59,23,-32
32126,-100000,10156,-781,2032,-59,23,-32
32128,-100000,10156,-781,2040,-59,22,-31
32130,-100000,10156,-781,2040,-59,22,-31
32132,-100000,10156,-781,2038,-60,22,-31
32134,-100781,10156,-781,2043,-59,22,-31
32136,-100781,10156,-781,2043,-59,21,-31
32138,-100781,10156,-781,2036,-60,21,-31
32141,-100781,10156,-781,2042,-59,21,-31
32142,-100781,10156,-781,2033,-59,21,-31
32144,-100000,10156,-1562,2043,-59,20,-31
32146,-100000,10156,-1562,2046,-60,20,-31
32148,-100000,10156,-1562,2035,-60,20,-30
32150,-100000,10156,-1562,2047,-60,20,-30
32152,-100000,10156,-1562,2047,-60,20,-30
32154,-100000,10156,-1562,2038,-60,20,-30
32156,-100000,10156,0,2041,-60,20,-30
32158,-100000,10156,0,2036,-59,20,-30
32160,-100000,10156,0,2041,-59,20,-30
32162,-100000,10156,0,2041,-59,20,-30
32164,-100000,10156,0,2045,-59,20,-29
32166,-100781,10156,781,2043,-59,20,-29
32168,-100781,10156,781,2043,-59,20,-29
32170,-100781,10156,781,2048,-59,20,-29
32172,-100781,10156,781,2042,-59,20,-29
32174,-100781,10156,781,2049,-59,20,-29
32176,-99218,9375,-781,2031,-59,20,-29
32178,-99218,9375,-781,2041,-59,20,-29
32180,-99218,9375,-781,2042,-59,20,-29
32182,-99218,9375,-781,2041,-59,20,-28
32184,-99218,9375,-781,2037,-59,20,-28
32186,-100000,9375,0,2051,-59,21,-28
32188,-100000,9375,0,2037,-59,21,-28
32190,-100000,9375,0,2037,-59,21,-28
32192,-100000,9375,0,2032,-59,22,-28
32194,-100000,9375,0,2043,-59,22,-28
32196,-100000,9375,-1562,2046,-59,22,-28
32198,-100000,9375,-1562,2038,-59,22,-28
32200,-100000,9375,-1562,2042,-59,22,-28
32202,-100000,9375,-1562,2032,-59,22,-28
32204,-100000,9375,-1562,2037,-59,22,-28
32206,-100000,9375,-1562,2047,-60,23,-28
32208,-100000,9375,-1562,2041,-60,23,-28
32210,-100000,9375,-1562,2036,-60,23,-28
32212,-100000,9375,-1562,2041,-60,23,-28
32214,-100000,9375,-1562,2041,-60,24,-28
32216,-100000,10156,-781,2036,-60,24,-28
32218,-100000,10156,-781,2032,-60,24,-28
32220,-100000,10156,-781,2046,-60,24,-28
32222,-100000,10156,-781,2042,-60,24,-28
32234,-100000,10156,-781,2040,-60,25,-29
32235,-100000,10156,-781,2036,-60,25,-29
32237,-100000,10156,-781,2041,-61,25,-29
32238,-100000,10156,-781,2043,-61,25,-29
32240,-100000,10156,-781,2040,-61,25,-29
32241,-100000,10156,-781,2041,-61,25,-29
32243,-100000,10156,-781,2042,-61,25,-29
32244,-100000,10156,-781,2041,-61,25,-29
32246,-100000,10937,-1562,2041,-61,25,-28
32247,-100000,10937,-1562,2036,-61,25,-28
32249,-100000,10937,-1562,2045,-61,25,-28
32250,-100000,10937,-1562,2041,-61,25,-28
32252,-100000,10937,-1562,2045,-61,25,-28
32253,-100000,10937,-1562,2037,-61,25,-28
32255,-100000,10937,-1562,2046,-61,24,-28
32256,-100000,10937,781,2032,-61,24,-28
32258,-100000,10937,781,2038,-61,24,-28
32259,-100000,10937,781,2047,-61,24,-28
32261,-100000,10937,781,2031,-61,24,-28
32262,-100000,10937,781,2031,-61,24,-28
32264,-100000,10937,781,2036,-61,24,-28
32266,-99218,10156,-1562,2036,-61,24,-28
32268,-99218,10156,-1562,2027,-61,24,-28
32270,-99218,10156,-1562,2033,-61,23,-28
32272,-99218,10156,-1562,2042,-61,23,-27
32274,-99218,10156,-1562,2043,-61,23,-27
32276,-100000,10156,-781,2037,-60,23,-27
32278,-100000,10156,-781,2040,-60,23,-27
32280,-100000,10156,-781,2046,-60,22,-27
32282,-100000,10156,-781,2042,-60,22,-27
32284,-100000,10156,-781,2041,-60,22,-27
32286,-100000,10156,-1562,2031,-60,22,-27
32288,-100000,10156,-1562,2038,-60,22,-27
32291,-100000,10156,-1562,2043,-60,22,-27
32292,-100000,10156,-1562,2038,-60,22,-26
32294,-100000,10156,-1562,2045,-60,22,-26
32296,-99218,8593,0,2036,-60,22,-26
32298,-99218,8593,0,2041,-60,22,-26
32300,-99218,8593,0,2035,-60,22,-26
32302,-99218,8593,0,2042,-60,22,-26
32304,-99218,8593,0,2042,-60,22,-26
32306,-99218,8593,-1562,2033,-61,22,-26
32308,-99218,8593,-1562,2041,-61,22,-26
32310,-99218,8593,-1562,2043,-61,23,-26
32312,-99218,8593,-1562,2038,-61,23,-26
32314,-99218,8593,-1562,2037,-61,23,-26
32316,-100000,9375,0,2033,-61,23,-26
32318,-100000,9375,0,2042,-61,23,-25
32320,-100000,9375,0,2036,-61,23,-25
32322,-100000,9375,0,2041,-61,23,-25
32324,-100000,9375,0,2041,-61,24,-25
32326,-100000,9375,0,2046,-61,24,-25
32328,-99218,8593,-781,2043,-61,24,-25
32330,-99218,8593,-781,2031,-62,25,-25
32332,-99218,8593,-781,2041,-62,25,-25
32334,-99218,8593,-781,2031,-62,25,-25
32336,-99218,8593,-781,2041,-62,25,-25
32338,-100000,8593,-781,2040,-62,26,-25
32340,-100000,8593,-781,2036,-62,26,-25
32342,-100000,8593,-781,2049,-62,26,-25
32344,-100000,8593,-781,2031,-62,27,-25
32346,-100000,8593,-781,2038,-62,27,-25
32348,-100000,9375,0,2043,-62,27,-25
32350,-100000,9375,0,2038,-63,27,-25
32352,-100000,9375,0,2031,-63,27,-25
32354,-100000,9375,0,2042,-63,27,-25
32356,-100000,9375,0,2031,-63,28,-25
32358,-100781,10156,-1562,2041,-63,28,-25
32360,-100781,10156,-1562,2038,-63,28,-25
32362,-100781,10156,-1562,2045,-63,28,-25
32364,-100781,10156,-1562,2036,-63,28,-25
