timestamp,accX,accY,accZ,pressure,gyroX,gyroY,gyroZ
26953,-98437,15625,-3125,2047,-44,44,-17
26956,-98437,17187,-3125,2051,-44,44,-17
26958,-98437,17187,-3125,2042,-44,44,-17
26959,-98437,17187,-3125,2036,-45,44,-17
26961,-98437,17187,-3125,2036,-45,43,-17
26963,-98437,17187,-3125,2046,-45,43,-17
26965,-98437,17187,-3125,2046,-45,43,-17
26967,-98437,17187,-3125,2046,-45,43,-17
26969,-98437,17187,-3125,2037,-45,43,-17
26971,-98437,17187,-3125,2041,-45,43,-17
26973,-98437,17187,-3125,2042,-45,43,-17
26975,-98437,17187,-3125,2045,-45,43,-17
26977,-100000,15625,-3125,2040,-45,43,-17
26979,-100000,15625,-3125,2032,-45,42,-17
26981,-100000,15625,-3125,2051,-45,42,-17
26983,-100000,15625,-3125,2053,-45,42,-17
26985,-100000,15625,-3125,2043,-45,42,-17
26987,-98437,14843,-2343,2031,-45,42,-17
26989,-98437,14843,-2343,2043,-45,42,-16
26991,-98437,14843,-2343,2043,-45,42,-16
26993,-98437,14843,-2343,2046,-45,42,-16
26995,-98437,14843,-2343,2046,-45,42,-16
26997,-99218,16406,-3125,2036,-45,42,-16
26999,-99218,16406,-3125,2038,-45,42,-16
27001,-99218,16406,-3125,2046,-45,42,-16
27003,-99218,16406,-3125,2048,-45,42,-16
27005,-99218,16406,-3125,2046,-45,42,-16
27007,-100000,17187,-781,2033,-45,42,-16
27009,-100000,17187,-781,2035,-45,41,-16
27011,-100000,17187,-781,2038,-45,41,-16
27013,-100000,17187,-781,2041,-45,41,-16
27015,-100000,17187,-781,2041,-45,41,-16
27017,-99218,16406,-2343,2023,-45,41,-16
27019,-99218,16406,-2343,2031,-46,41,-16
27021,-99218,16406,-2343,2049,-46,41,-16
27023,-99218,16406,-2343,2041,-46,41,-16
27025,-99218,16406,-2343,2042,-46,41,-17
27027,-98437,16406,-2343,2046,-46,41,-17
27029,-98437,16406,-2343,2033,-46,41,-17
27031,-98437,16406,-2343,2048,-46,41,-17
27033,-98437,16406,-2343,2040,-46,40,-17
27035,-98437,16406,-2343,2043,-46,40,-17
27037,-99218,17187,-2343,2036,-46,40,-17
27039,-99218,17187,-2343,2047,-46,40,-17
27041,-99218,17187,-2343,2035,-45,40,-17
27043,-99218,17187,-2343,2049,-46,40,-17
27045,-99218,17187,-2343,2041,-46,40,-17
27047,-100000,17187,-2343,2041,-46,40,-17
27049,-100000,17187,-2343,2047,-46,40,-17
27051,-100000,17187,-2343,2040,-46,40,-17
27053,-100000,17187,-2343,2051,-46,40,-17
27055,-100000,17187,-2343,2035,-46,40,-17
27057,-100000,16406,-2343,2041,-46,40,-17
27059,-100000,16406,-2343,2038,-47,40,-17
27061,-100000,16406,-2343,2041,-46,40,-17
27063,-100000,16406,-2343,2045,-47,40,-17
27065,-100000,16406,-2343,2043,-47,40,-17
27067,-100000,16406,-3125,2038,-47,40,-17
27069,-100000,16406,-3125,2036,-47,40,-17
27071,-100000,16406,-3125,2042,-47,39,-17
27073,-100000,16406,-3125,2040,-47,39,-17
27075,-100000,16406,-3125,2040,-47,39,-17
27077,-100000,17968,-3125,2043,-47,39,-17
27079,-100000,17968,-3125,2038,-47,39,-17
27081,-100000,17968,-3125,2041,-47,39,-17
27083,-100000,17968,-3125,2042,-47,38,-17
27085,-100000,17968,-3125,2046,-47,38,-17
27087,-100000,17187,-3125,2040,-47,38,-18
27089,-100000,17187,-3125,2032,-47,38,-18
27091,-100000,17187,-3125,2046,-48,37,-17
27093,-100000,17187,-3125,2045,-48,37,-18
27095,-100000,17187,-3125,2046,-48,37,-18
27097,-100000,17187,-3125,2031,-48,36,-18
27115,-100000,16406,-3125,2046,-49,35,-18
27117,-100000,16406,-3125,2040,-49,35,-18
27118,-100000,14843,-2343,2040,-49,35,-18
27120,-100000,14843,-2343,2038,-49,35,-18
27121,-100000,14843,-2343,2033,-49,34,-18
27123,-100000,14843,-2343,2047,-49,34,-18
27124,-100000,14843,-2343,2042,-49,34,-19
27126,-100000,14843,-2343,2035,-49,34,-19
27127,-100000,14843,-2343,2042,-49,34,-19
27129,-100000,14843,-2343,2043,-49,34,-19
27130,-100000,14843,-2343,2041,-49,34,-19
27132,-100000,14843,-2343,2038,-49,34,-19
27133,-100000,14843,-2343,2051,-49,34,-19
27135,-100000,14843,-2343,2041,-49,34,-19
27136,-100000,14843,-2343,2040,-49,34,-19
27138,-100000,16406,-3906,2040,-49,34,-19
27139,-100000,16406,-3906,2040,-49,34,-19
27141,-100000,16406,-3906,2049,-49,34,-19
27142,-100000,16406,-3906,2038,-50,34,-19
27144,-100000,16406,-3906,2038,-50,34,-19
27145,-100000,16406,-3906,2035,-50,34,-19
27147,-100000,16406,-3906,2049,-50,34,-19
27148,-100781,16406,-3125,2042,-50,34,-19
27150,-100781,16406,-3125,2053,-50,34,-19
27151,-100781,16406,-3125,2041,-50,34,-19
27153,-100781,16406,-3125,2041,-50,34,-19
27154,-100781,16406,-3125,2048,-50,34,-19
27156,-100781,16406,-3125,2045,-50,34,-19
27157,-100781,16406,-3125,2043,-50,34,-19
27159,-100000,17187,-3906,2042,-50,34,-19
27160,-100000,17187,-3906,2043,-50,34,-19
27162,-100000,17187,-3906,2047,-50,34,-19
27163,-100000,17187,-3906,2037,-50,34,-19
27165,-100000,17187,-3906,2043,-50,34,-19
27167,-100000,17187,-3906,2040,-50,34,-19
27169,-100781,16406,-3906,2040,-50,34,-19
27171,-100781,16406,-3906,2038,-50,34,-19
27173,-100781,16406,-3906,2051,-50,33,-20
27175,-100781,16406,-3906,2040,-51,33,-20
27177,-100781,16406,-3906,2037,-51,33,-20
27179,-100781,17187,-2343,2042,-51,33,-20
27181,-100781,17187,-2343,2041,-51,33,-20
27183,-100781,17187,-2343,2041,-51,33,-20
27185,-100781,17187,-2343,2046,-51,33,-20
27187,-100781,17187,-2343,2042,-51,33,-20
27189,-100000,16406,-3906,2041,-51,33,-20
27191,-100000,16406,-3906,2037,-51,33,-20
27193,-100000,16406,-3906,2045,-52,33,-20
27195,-100000,16406,-3906,2045,-52,33,-20
27197,-100000,16406,-3906,2033,-52,32,-20
27199,-100000,16406,-3906,2042,-51,32,-20
27201,-100000,16406,-3906,2045,-51,32,-20
27203,-100000,16406,-3906,2043,-52,32,-20
27205,-100000,16406,-3906,2040,-52,31,-20
27207,-100000,16406,-3906,2042,-52,31,-20
27209,-100781,15625,-3906,2035,-52,31,-21
27211,-100781,15625,-3906,2041,-52,31,-21
27213,-100781,15625,-3906,2036,-53,31,-20
27215,-100781,15625,-3906,2049,-53,31,-21
27217,-100781,15625,-3906,2042,-53,31,-21
27219,-101562,17187,-3125,2038,-53,30,-21
27221,-101562,17187,-3125,2041,-53,30,-21
27223,-101562,17187,-3125,2040,-53,30,-21
27225,-101562,17187,-3125,2042,-53,30,-21
27227,-101562,17187,-3125,2036,-53,30,-21
27229,-100781,16406,-3125,2042,-53,30,-20
27231,-100781,16406,-3125,2035,-53,30,-21
27233,-100781,16406,-3125,2041,-54,30,-21
27235,-100781,16406,-3125,2048,-54,29,-21
27237,-100781,16406,-3125,2043,-54,29,-21
27284,-100000,16406,-3125,2040,-56,28,-22
27286,-100000,16406,-3125,2031,-56,28,-22
27287,-100000,16406,-3125,2041,-56,28,-22
27289,-100000,16406,-3125,2037,-57,28,-22
27290,-100781,17187,-3906,2033,-57,28,-22
27292,-100781,17187,-3906,2047,-57,28,-22
27293,-100781,17187,-3906,2032,-57,28,-22
27295,-100781,17187,-3906,2045,-57,28,-22
27296,-100781,17187,-3906,2040,-57,28,-22
27298,-100781,17187,-3906,2033,-57,28,-22
27299,-100781,16406,-3906,2041,-57,28,-22
27301,-100781,16406,-3906,2048,-57,28,-22
27302,-100781,16406,-3906,2040,-58,28,-22
27304,-100781,16406,-3906,2040,-58,28,-22
27305,-100781,16406,-3906,2036,-58,28,-22
27307,-100781,16406,-3906,2041,-58,28,-22
27308,-100781,16406,-3906,2041,-58,28,-22
27310,-100781,16406,-3125,2037,-58,28,-22
27311,-100781,16406,-3125,2046,-58,28,-22
27313,-100781,16406,-3125,2032,-58,28,-23
27314,-100781,16406,-3125,2045,-58,27,-22
27316,-100781,16406,-3125,2042,-58,27,-22
27317,-100781,16406,-3125,2048,-59,27,-23
27319,-100781,16406,-3125,2041,-59,27,-23
27320,-100781,14843,-3125,2041,-59,27,-23
27322,-100781,14843,-3125,2042,-59,27,-23
27323,-100781,14843,-3125,2041,-59,27,-23
27325,-100781,14843,-3125,2041,-59,27,-23
27326,-100781,14843,-3125,2045,-59,27,-23
27328,-100781,14843,-3125,2032,-59,27,-23
27329,-100781,14843,-3125,2054,-59,27,-23
27331,-101562,15625,-2343,2032,-59,27,-23
27332,-101562,15625,-2343,2046,-59,27,-23
27334,-101562,15625,-2343,2036,-59,26,-23
27365,-100781,16406,-3906,2043,-61,24,-24
27366,-100781,16406,-3906,2037,-61,24,-24
27368,-100781,16406,-3906,2051,-61,24,-24
27369,-100781,16406,-3906,2038,-61,24,-24
27371,-100781,16406,-3125,2042,-61,24,-24
27372,-100781,16406,-3125,2049,-61,24,-24
27374,-100781,16406,-3125,2046,-61,24,-24
27375,-100781,16406,-3125,2047,-61,23,-24
27377,-100781,16406,-3125,2037,-61,23,-24
27378,-100781,16406,-3125,2043,-62,23,-24
27380,-100781,16406,-3125,2033,-62,23,-24
27381,-100781,14843,-3125,2049,-62,23,-24
27383,-100781,14843,-3125,2046,-62,23,-24
27384,-100781,14843,-3125,2041,-62,23,-24
27386,-100781,14843,-3125,2042,-62,23,-24
27387,-100781,14843,-3125,2041,-62,23,-24
27389,-100781,14843,-3125,2045,-62,23,-24
27390,-100781,15625,-3125,2049,-62,23,-24
27392,-100781,15625,-3125,2038,-62,23,-24
27393,-100781,15625,-3125,2042,-63,23,-24
27395,-100781,15625,-3125,2031,-63,23,-24
27396,-100781,15625,-3125,2051,-63,23,-24
27398,-100781,15625,-3125,2033,-63,23,-24
27399,-100781,15625,-3125,2038,-63,23,-25
27401,-100000,15625,-3125,2037,-63,23,-25
27402,-100000,15625,-3125,2042,-63,23,-25
27404,-100000,15625,-3125,2041,-63,23,-25
27405,-100000,15625,-3125,2037,-64,23,-25
27407,-100000,15625,-3125,2038,-64,23,-25
27408,-100000,15625,-3125,2046,-64,23,-25
27410,-100000,15625,-3125,2048,-64,24,-25
27411,-101562,16406,-3906,2036,-64,24,-25
27413,-101562,16406,-3906,2041,-64,24,-25
27414,-101562,16406,-3906,2036,-64,24,-25
27416,-101562,16406,-3906,2035,-64,24,-25
27419,-101562,16406,-3906,2037,-64,24,-25
27421,-100781,14843,-3125,2045,-64,24,-25
27422,-100781,14843,-3125,2035,-65,24,-25
27424,-100781,14843,-3125,2047,-65,24,-25
27425,-100781,14843,-3125,2042,-65,24,-25
27427,-100781,14843,-3125,2052,-65,24,-25
27428,-100781,14843,-3125,2045,-65,24,-26
27430,-100781,14843,-3125,2046,-65,24,-26
27431,-101562,16406,-1562,2042,-65,24,-26
27432,-101562,16406,-1562,2046,-65,24,-25
27434,-101562,16406,-1562,2045,-65,24,-26
27435,-101562,16406,-1562,2038,-65,24,-26
27437,-101562,16406,-1562,2037,-65,24,-26
27438,-101562,16406,-1562,2047,-65,24,-26
27440,-101562,16406,-1562,2041,-65,24,-26
27442,-101562,14843,-3906,2041,-65,24,-26
27443,-101562,14843,-3906,2051,-65,24,-26
27445,-101562,14843,-3906,2041,-65,24,-26
27446,-101562,14843,-3906,2047,-65,24,-26
27448,-101562,14843,-3906,2038,-65,24,-26
27449,-101562,14843,-3906,2040,-65,23,-26
27451,-101562,14843,-3906,2047,-65,23,-26
27452,-100781,14843,-781,2056,-65,23,-26
27454,-100781,14843,-781,2041,-65,23,-26
27455,-100781,14843,-781,2046,-65,23,-26
27457,-100781,14843,-781,2040,-65,23,-26
27458,-100781,14843,-781,2043,-65,24,-26
27459,-100781,14843,-781,2035,-65,24,-26
27461,-100000,15625,-3125,2045,-65,24,-26
27462,-100000,15625,-3125,2049,-65,23,-26
27464,-100000,15625,-3125,2037,-66,23,-26
27466,-100000,15625,-3125,2046,-66,23,-26
27467,-100000,15625,-3125,2042,-66,23,-26
27469,-100000,15625,-3125,2040,-66,23,-26
27470,-100000,15625,-3125,2052,-66,23,-26
27490,-100781,15625,-3125,2048,-67,22,-27
27491,-100000,15625,-3125,2053,-67,22,-27
27493,-100000,15625,-3125,2045,-67,22,-27
27494,-100000,15625,-3125,2038,-67,22,-27
27496,-100000,15625,-3125,2046,-67,22,-27
27497,-100000,15625,-3125,2043,-67,22,-27
27499,-100000,15625,-3125,2049,-67,22,-27
27500,-100000,15625,-3125,2040,-67,22,-27
27502,-100781,15625,-3906,2031,-68,22,-27
27503,-100781,15625,-3906,2041,-68,21,-27
27505,-100781,15625,-3906,2040,-68,21,-27
27506,-100781,15625,-3906,2042,-68,21,-27
27508,-100781,15625,-3906,2035,-68,21,-27
27509,-100781,15625,-3906,2041,-68,21,-27
27511,-100781,15625,-3906,2047,-68,21,-28
27512,-100781,15625,-1562,2048,-68,21,-28
27514,-100781,15625,-1562,2033,-68,21,-27
27515,-100781,15625,-1562,2047,-68,21,-28
27517,-100781,15625,-1562,2046,-68,21,-28
27518,-100781,15625,-1562,2038,-68,21,-28
27520,-100781,15625,-1562,2046,-68,21,-28
27521,-100781,15625,-1562,2049,-68,21,-28
27523,-100000,16406,-3125,2042,-68,21,-28
27524,-100000,16406,-3125,2041,-68,21,-28
27526,-100000,16406,-3125,2045,-68,21,-28
27527,-100000,16406,-3125,2042,-68,22,-28
27529,-100000,16406,-3125,2048,-68,22,-28
27530,-100000,16406,-3125,2041,-68,22,-28
27532,-100000,14843,-3125,2042,-69,22,-28
27533,-100000,14843,-3125,2045,-68,22,-28
27535,-100000,14843,-3125,2051,-69,22,-28
27536,-100000,14843,-3125,2038,-69,22,-28
27538,-100000,14843,-3125,2042,-69,22,-28
27539,-100000,14843,-3125,2041,-69,22,-28
27541,-100000,14843,-3125,2045,-69,22,-28
27543,-100781,16406,-1562,2032,-69,22,-28
27545,-100781,16406,-1562,2043,-69,22,-28
27546,-100781,16406,-1562,2040,-69,22,-28
27548,-100781,16406,-1562,2035,-69,22,-28
27549,-100781,16406,-1562,2042,-69,22,-28
27551,-100781,16406,-1562,2035,-69,22,-28
27552,-100000,16406,-2343,2036,-69,22,-28
27554,-100000,16406,-2343,2046,-69,22,-28
27555,-100000,16406,-2343,2041,-69,22,-28
27557,-100000,16406,-2343,2031,-69,22,-28
27558,-100000,16406,-2343,2033,-69,22,-28
27560,-100000,16406,-2343,2038,-69,22,-28
27561,-100000,16406,-2343,2037,-69,22,-28
27563,-100000,15625,-781,2041,-69,22,-28
27564,-100000,15625,-781,2047,-70,22,-28
27566,-100000,15625,-781,2041,-69,22,-29
27567,-100000,15625,-781,2046,-69,22,-29
27569,-100000,15625,-781,2042,-69,22,-28
27570,-100000,15625,-781,2041,-69,22,-28
27572,-100000,15625,-781,2038,-69,22,-28
27573,-99218,16406,-2343,2048,-69,22,-28
27575,-99218,16406,-2343,2046,-70,22,-28
27576,-99218,16406,-2343,2036,-70,22,-28
27578,-99218,16406,-2343,2047,-70,22,-29
27579,-99218,16406,-2343,2041,-70,22,-29
27581,-99218,16406,-2343,2037,-70,22,-29
27582,-99218,16406,-2343,2046,-70,22,-29
27584,-100781,17187,-1562,2045,-70,22,-29
27585,-100781,17187,-1562,2049,-70,22,-29
27586,-100781,17187,-1562,2056,-69,22,-29
27588,-100781,17187,-1562,2049,-70,22,-29
27589,-100781,17187,-1562,2037,-70,22,-29
27591,-100781,17187,-1562,2043,-70,22,-29
27593,-99218,16406,-2343,2036,-70,22,-28
27594,-99218,16406,-2343,2042,-69,22,-29
27614,-99218,15625,-2343,2043,-69,22,-29
27615,-99218,15625,-2343,2040,-69,21,-29
27617,-99218,15625,-2343,2046,-70,21,-29
27618,-99218,15625,-2343,2048,-70,21,-29
27620,-99218,15625,-2343,2041,-70,21,-29
27621,-99218,15625,-2343,2035,-70,21,-29
27623,-99218,15625,-2343,2038,-70,21,-29
27624,-100000,17187,-1562,2046,-70,21,-29
27626,-100000,17187,-1562,2049,-70,21,-29
27627,-100000,17187,-1562,2036,-70,21,-29
27629,-100000,17187,-1562,2033,-70,21,-29
27630,-100000,17187,-1562,2043,-70,21,-29
27632,-100000,17187,-1562,2049,-70,21,-29
27633,-100000,17187,-781,2035,-70,21,-29
27635,-100000,17187,-781,2047,-70,21,-29
27636,-100000,17187,-781,2045,-70,21,-29
27638,-100000,17187,-781,2049,-70,21,-29
27639,-100000,17187,-781,2032,-70,21,-29
27641,-100000,17187,-781,2049,-70,21,-29
27642,-100000,17187,-781,2027,-70,21,-29
27644,-99218,17187,-1562,2045,-70,21,-29
27645,-99218,17187,-1562,2037,-70,21,-29
27647,-99218,17187,-1562,2031,-70,21,-29
27648,-99218,17187,-1562,2041,-70,21,-29
27650,-99218,17187,-1562,2041,-70,21,-29
27651,-99218,17187,-1562,2032,-70,21,-29
27653,-99218,17187,-1562,2041,-70,20,-29
27654,-99218,14843,-781,2043,-70,20,-29
27656,-99218,14843,-781,2048,-70,20,-29
27657,-99218,14843,-781,2042,-70,21,-29
27658,-99218,14843,-781,2043,-70,21,-29
27660,-99218,14843,-781,2049,-70,21,-29
27661,-99218,14843,-781,2043,-70,21,-29
27663,-99218,14843,-781,2037,-70,21,-29
27664,-98437,15625,-1562,2040,-70,21,-29
27666,-98437,15625,-1562,2041,-70,21,-29
27668,-98437,15625,-1562,2049,-70,22,-29
27670,-98437,15625,-1562,2041,-70,22,-30
27671,-98437,15625,-1562,2049,-70,22,-30
27673,-98437,15625,-1562,2048,-70,22,-30
27674,-99218,16406,-2343,2043,-70,22,-30
27676,-99218,16406,-2343,2035,-70,22,-29
27677,-99218,16406,-2343,2045,-70,22,-29
27679,-99218,16406,-2343,2036,-70,22,-29
27680,-99218,16406,-2343,2053,-70,22,-29
27682,-99218,16406,-2343,2042,-70,22,-29
27683,-99218,16406,-2343,2036,-70,22,-29
27685,-99218,16406,-781,2048,-69,22,-29
27686,-99218,16406,-781,2038,-69,22,-29
27688,-99218,16406,-781,2042,-69,22,-29
27689,-99218,16406,-781,2035,-70,22,-30
27691,-99218,16406,-781,2033,-70,22,-30
27692,-99218,16406,-781,2049,-70,22,-30
27694,-97656,17187,-781,2032,-70,22,-30
27695,-97656,17187,-781,2035,-69,22,-30
27697,-97656,17187,-781,2041,-70,22,-30
27699,-97656,17187,-781,2037,-69,23,-29
27701,-97656,17187,-781,2043,-69,23,-29
27703,-97656,17187,-781,2035,-69,23,-29
27705,-98437,16406,-1562,2047,-69,23,-29
27707,-98437,16406,-1562,2043,-70,23,-29
27709,-98437,16406,-1562,2049,-70,23,-29
27711,-98437,16406,-1562,2031,-70,23,-29
27713,-98437,16406,-1562,2051,-69,22,-29
27715,-98437,17187,-781,2041,-69,22,-29
27717,-98437,17187,-781,2043,-69,22,-29
27719,-98437,17187,-781,2047,-69,22,-29
27721,-98437,17187,-781,2048,-69,22,-29
27723,-98437,17187,-781,2038,-69,22,-29
27725,-97656,16406,-781,2040,-69,22,-29
27727,-97656,16406,-781,2049,-69,22,-29
27729,-97656,16406,-781,2032,-69,22,-29
27746,-98437,16406,-781,2051,-67,21,-29
27747,-98437,16406,-781,2042,-67,21,-29
27749,-98437,16406,-781,2046,-67,21,-29
27750,-98437,16406,-781,2045,-67,21,-29
27752,-98437,16406,-781,2048,-67,21,-29
27753,-98437,16406,-781,2045,-67,21,-29
27755,-98437,16406,-781,2041,-67,21,-29
27756,-98437,16406,-781,2052,-67,21,-29
27758,-98437,16406,-781,2040,-67,21,-29
27759,-98437,16406,-781,2043,-67,21,-29
27761,-98437,16406,-781,2051,-67,21,-29
27762,-98437,16406,-781,2036,-67,21,-29
27764,-98437,16406,-781,2037,-67,21,-29
27765,-98437,16406,-1562,2032,-67,21,-29
27767,-98437,16406,-1562,2051,-67,21,-29
27768,-98437,16406,-1562,2057,-67,21,-29
27770,-98437,16406,-1562,2045,-67,21,-29
27771,-98437,16406,-1562,2038,-67,21,-29
27773,-98437,16406,-1562,2048,-67,21,-28
27774,-98437,16406,-1562,2051,-67,21,-29
27776,-99218,17187,-781,2046,-67,21,-29
27777,-99218,17187,-781,2046,-67,21,-29
27779,-99218,17187,-781,2043,-67,21,-29
27780,-99218,17187,-781,2045,-67,21,-29
27782,-99218,17187,-781,2042,-67,21,-29
27783,-99218,17187,-781,2041,-67,21,-29
27785,-97656,15625,-781,2045,-67,21,-28
27786,-97656,15625,-781,2042,-66,21,-29
27788,-97656,15625,-781,2051,-66,21,-29
27789,-97656,15625,-781,2031,-66,21,-29
27791,-97656,15625,-781,2045,-66,21,-29
27793,-97656,15625,-781,2042,-66,21,-29
27795,-97656,16406,-1562,2046,-66,22,-29
27797,-97656,16406,-1562,2040,-66,22,-29
27799,-97656,16406,-1562,2048,-66,22,-29
27801,-97656,16406,-1562,2037,-66,22,-29
27842,-96875,16406,0,2035,-63,22,-29
27844,-96875,16406,0,2037,-63,22,-29
27846,-96875,16406,0,2041,-63,22,-29
27847,-96875,16406,0,2038,-63,22,-29
27849,-96875,16406,0,2037,-62,22,-29
27850,-96875,16406,0,2043,-62,22,-29
27851,-96875,16406,0,2036,-62,22,-29
27853,-96875,16406,0,2038,-62,22,-29
27854,-96875,16406,0,2038,-62,22,-30
27856,-97656,17187,-781,2042,-62,22,-30
27857,-97656,17187,-781,2041,-62,22,-30
27859,-97656,17187,-781,2041,-62,22,-30
27860,-97656,17187,-781,2031,-62,22,-30
27862,-97656,17187,-781,2047,-61,22,-30
27863,-97656,17187,-781,2043,-61,22,-30
27865,-97656,17187,-781,2038,-61,22,-30
27866,-96093,15625,-781,2041,-61,22,-30
27868,-96093,15625,-781,2032,-61,22,-30
27869,-96093,15625,-781,2049,-61,22,-29
27871,-96093,15625,-781,2041,-61,22,-29
27872,-96093,15625,-781,2038,-61,22,-29
27874,-96093,15625,-781,2046,-61,22,-29
27875,-96093,15625,-781,2047,-61,22,-29
27877,-96875,16406,-781,2041,-61,22,-29
27878,-96875,16406,-781,2032,-61,22,-29
27880,-96875,16406,-781,2042,-61,22,-29
27881,-96875,16406,-781,2035,-61,22,-29
27883,-96875,16406,-781,2040,-61,22,-29
27884,-96875,16406,-781,2040,-61,22,-29
27886,-96875,15625,0,2047,-61,22,-29
27887,-96875,15625,0,2045,-60,21,-29
27889,-96875,15625,0,2037,-60,21,-29
27890,-96875,15625,0,2033,-60,21,-29
27892,-96875,15625,0,2031,-60,22,-29
27893,-96875,15625,0,2041,-60,22,-29
27895,-96875,15625,0,2040,-60,22,-29
27896,-96875,17187,0,2038,-60,22,-29
27898,-96875,17187,0,2041,-60,22,-28
27901,-96875,17187,0,2046,-59,22,-28
27903,-96875,17187,0,2043,-59,22,-28
27904,-96875,17187,0,2042,-59,22,-28
27906,-96875,17187,0,2041,-59,22,-28
27907,-96875,16406,781,2048,-59,22,-28
27909,-96875,16406,781,2038,-59,22,-28
27910,-96875,16406,781,2045,-59,22,-28
27912,-96875,16406,781,2046,-58,22,-28
27913,-96875,16406,781,2046,-58,22,-28
27915,-96875,16406,781,2043,-58,22,-28
27916,-96875,16406,781,2047,-58,22,-28
27918,-96875,16406,-781,2046,-58,22,-29
27919,-96875,16406,-781,2040,-58,22,-29
27921,-96875,16406,-781,2046,-58,22,-28
27922,-96875,16406,-781,2042,-58,22,-28
27924,-96875,16406,-781,2035,-57,22,-28
27925,-96875,16406,-781,2042,-57,22,-28
27926,-96875,16406,781,2040,-57,22,-28
27928,-96875,16406,781,2045,-57,22,-29
27929,-96875,16406,781,2035,-57,22,-29
27931,-96875,16406,781,2038,-57,22,-29
27932,-96875,16406,781,2036,-57,22,-29
27934,-96875,16406,781,2040,-57,22,-29
27935,-96875,16406,781,2041,-56,22,-29
27937,-96093,16406,781,2046,-56,22,-29
27938,-96093,16406,781,2047,-56,22,-29
27940,-96093,16406,781,2033,-56,23,-28
27941,-96093,16406,781,2046,-56,23,-28
27943,-96093,16406,781,2046,-56,23,-28
27944,-96093,16406,781,2033,-56,23,-29
27946,-96093,16406,781,2041,-56,23,-29
27947,-96875,16406,-781,2043,-55,23,-28
27949,-96875,16406,-781,2036,-55,23,-28
27950,-96875,16406,-781,2035,-55,23,-28
27952,-96875,16406,-781,2028,-55,23,-28
27953,-96875,16406,-781,2043,-55,23,-28
27955,-96875,16406,-781,2037,-55,23,-28
27979,-96875,16406,0,2041,-53,23,-28
27981,-96875,16406,0,2046,-53,23,-28
27982,-96875,16406,0,2035,-53,23,-28
27984,-96875,16406,0,2041,-53,23,-28
27985,-96875,16406,0,2041,-53,23,-28
27987,-96875,16406,0,2051,-53,23,-28
27988,-96093,16406,781,2031,-53,23,-28
27990,-96093,16406,781,2038,-53,23,-28
27991,-96093,16406,781,2037,-53,23,-28
27993,-96093,16406,781,2041,-53,23,-28
27994,-96093,16406,781,2048,-52,23,-28
27996,-96093,16406,781,2033,-52,23,-28
27997,-97656,17968,-781,2043,-52,23,-28
27999,-97656,17968,-781,2057,-52,23,-28
28000,-97656,17968,-781,2035,-52,23,-28
28002,-97656,17968,-781,2042,-52,23,-28
28003,-97656,17968,-781,2038,-52,23,-28
28005,-97656,17968,-781,2036,-52,23,-28
28006,-97656,17968,-781,2041,-52,23,-28
28008,-96875,15625,-781,2042,-52,23,-28
28009,-96875,15625,-781,2037,-51,23,-28
28011,-96875,15625,-781,2040,-51,23,-28
28012,-96875,15625,-781,2037,-51,23,-28
28014,-96875,15625,-781,2041,-51,23,-28
28015,-96875,15625,-781,2032,-51,23,-28
28017,-96875,15625,-781,2049,-51,23,-27
28018,-96875,16406,781,2046,-51,23,-27
28020,-96875,16406,781,2045,-51,23,-27
28021,-96875,16406,781,2041,-51,23,-27
28023,-96875,16406,781,2053,-51,23,-28
28024,-96875,16406,781,2052,-51,23,-28
28026,-96875,16406,781,2051,-51,23,-28
28027,-96875,16406,781,2051,-50,23,-28
28029,-96875,15625,0,2043,-50,23,-28
28030,-96875,15625,0,2041,-50,23,-28
28032,-96875,15625,0,2042,-50,23,-28
28033,-96875,15625,0,2038,-50,23,-28
28035,-96875,15625,0,2043,-50,23,-28
28038,-97656,17187,-781,2051,-50,23,-28
28039,-97656,17187,-781,2042,-50,23,-28
28041,-97656,17187,-781,2046,-49,23,-28
28042,-97656,17187,-781,2042,-49,23,-28
28044,-97656,17187,-781,2037,-49,23,-28
28045,-97656,17187,-781,2040,-49,23,-28
28047,-97656,17187,-781,2041,-49,23,-27
28048,-96875,16406,781,2046,-49,23,-27
28050,-96875,16406,781,2040,-49,23,-27
28051,-96875,16406,781,2041,-49,23,-28
28053,-96875,16406,781,2041,-48,23,-28
28054,-96875,16406,781,2035,-48,23,-28
28056,-96875,16406,781,2041,-48,23,-28
28057,-96875,16406,781,2045,-48,23,-28
28059,-96093,17968,0,2032,-48,23,-28
28060,-96093,17968,0,2036,-48,23,-28
28062,-96093,17968,0,2046,-48,23,-28
28063,-96093,17968,0,2041,-48,23,-28
28065,-96093,17968,0,2032,-48,23,-28
28067,-96093,17968,0,2037,-47,23,-28
28069,-96093,16406,0,2042,-47,23,-28
28071,-96093,16406,0,2043,-47,23,-28
28073,-96093,16406,0,2042,-47,23,-27
28075,-96093,16406,0,2042,-47,24,-28
28077,-96093,16406,0,2051,-47,24,-28
28079,-97656,17187,0,2046,-46,24,-28
28081,-97656,17187,0,2032,-46,24,-28
28083,-97656,17187,0,2038,-46,24,-28
28085,-97656,17187,0,2032,-46,24,-28
28087,-97656,17187,0,2049,-46,24,-28
28089,-97656,17187,-1562,2041,-45,24,-28
28091,-97656,17187,-1562,2042,-45,24,-28
28093,-97656,17187,-1562,2038,-45,24,-28
28095,-97656,17187,-1562,2030,-45,23,-28
28097,-97656,17187,-1562,2045,-45,23,-28
28099,-97656,16406,-781,2036,-45,23,-28
28101,-97656,16406,-781,2046,-45,23,-28
28103,-97656,16406,-781,2043,-45,23,-28
28105,-97656,16406,-781,2046,-45,23,-28
28107,-97656,16406,-781,2041,-45,23,-28
28109,-97656,15625,-781,2048,-45,23,-28
28111,-97656,15625,-781,2043,-45,23,-28
28113,-97656,15625,-781,2043,-45,23,-28
28115,-97656,15625,-781,2041,-45,23,-28
28117,-97656,15625,-781,2041,-45,23,-28
28119,-96875,17187,0,2045,-45,23,-28
28121,-96875,17187,0,2046,-44,23,-29
28123,-96875,17187,0,2047,-44,23,-28
28125,-96875,17187,0,2032,-44,23,-28
28127,-96875,17187,0,2043,-44,23,-28
28129,-96875,16406,0,2035,-44,23,-28
28131,-96875,16406,0,2040,-44,22,-28
28133,-96875,16406,0,2032,-44,22,-28
28135,-96875,16406,0,2041,-44,22,-28
28137,-96875,16406,0,2043,-44,22,-28
28139,-98437,17968,-781,2041,-43,22,-28
28141,-98437,17968,-781,2051,-43,22,-28
28143,-98437,17968,-781,2046,-43,22,-28
28145,-98437,17968,-781,2042,-43,22,-28
28147,-98437,17968,-781,2043,-43,22,-28
28149,-98437,17968,-781,2036,-43,22,-28
28151,-98437,16406,-2343,2031,-43,22,-28
28153,-98437,16406,-2343,2042,-43,22,-28
28155,-98437,16406,-2343,2042,-43,22,-29
28157,-98437,16406,-2343,2041,-42,22,-28
28159,-98437,16406,-2343,2037,-42,22,-28
28161,-97656,16406,-1562,2041,-42,22,-28
28163,-97656,16406,-1562,2038,-42,22,-28
28165,-97656,16406,-1562,2040,-42,22,-28
28167,-97656,16406,-1562,2037,-42,22,-28
28169,-97656,16406,-1562,2037,-42,22,-28
28171,-98437,16406,-1562,2036,-42,22,-28
28173,-98437,16406,-1562,2038,-41,22,-28
28175,-98437,16406,-1562,2037,-41,22,-28
28177,-98437,16406,-1562,2049,-41,22,-28
28179,-98437,16406,-1562,2036,-41,22,-28
28181,-99218,16406,-2343,2045,-41,22,-28
28183,-99218,16406,-2343,2043,-41,22,-28
28185,-99218,16406,-2343,2040,-41,22,-29
28187,-99218,16406,-2343,2037,-41,22,-29
28189,-99218,16406,-2343,2048,-41,21,-29
28191,-98437,17187,-1562,2046,-41,21,-29
28193,-98437,17187,-1562,2038,-41,21,-29
28195,-98437,17187,-1562,2043,-41,21,-29
28197,-98437,17187,-1562,2031,-41,22,-29
28199,-98437,17187,-1562,2038,-41,21,-29
28201,-97656,17968,-1562,2041,-41,21,-29
28203,-97656,17968,-1562,2041,-40,21,-29
28205,-97656,17968,-1562,2031,-40,21,-29
28207,-97656,17968,-1562,2046,-40,21,-29
28209,-97656,17968,-1562,2049,-40,21,-29
28211,-97656,17187,-781,2037,-40,21,-29
28213,-97656,17187,-781,2036,-40,21,-29
28215,-97656,17187,-781,2042,-40,21,-29
28217,-97656,17187,-781,2051,-40,21,-29
28219,-97656,17187,-781,2045,-40,21,-29
28221,-98437,17187,-781,2043,-40,21,-29
28223,-98437,17187,-781,2048,-39,21,-29
28225,-98437,17187,-781,2048,-39,21,-29
28227,-98437,17187,-781,2051,-39,20,-29
28229,-98437,17187,-781,2046,-39,20,-29
28231,-99218,17187,-781,2048,-39,20,-29
28233,-99218,17187,-781,2032,-39,20,-29
28235,-99218,17187,-781,2041,-39,20,-29
28237,-99218,17187,-781,2049,-38,20,-29
28239,-99218,17187,-781,2038,-38,20,-29
28241,-99218,17187,-2343,2036,-38,20,-29
28243,-99218,17187,-2343,2047,-38,20,-29
28245,-99218,17187,-2343,2042,-38,20,-29
28247,-99218,17187,-2343,2057,-38,20,-29
28272,-98437,17968,-2343,2032,-38,18,-29
28273,-98437,17968,-2343,2049,-38,18,-29
28275,-98437,17968,-2343,2041,-38,18,-29
28276,-98437,17968,-2343,2038,-38,17,-29
28278,-98437,17968,-2343,2046,-38,17,-29
28279,-98437,17968,-2343,2035,-38,17,-29
28281,-98437,17968,-2343,2051,-38,17,-29
28282,-98437,17968,-2343,2045,-38,17,-29
28284,-98437,17968,-2343,2046,-38,17,-29
28285,-98437,17968,-2343,2040,-38,17,-29
28287,-98437,17968,-2343,2043,-38,17,-29
28288,-98437,17968,-2343,2056,-38,17,-29
28290,-98437,17968,-2343,2043,-38,17,-29
28291,-100000,17968,-3125,2038,-38,17,-29
28293,-100000,17968,-3125,2041,-38,17,-29
28294,-100000,17968,-3125,2040,-38,16,-29
28296,-100000,17968,-3125,2054,-38,17,-29
28297,-100000,17968,-3125,2033,-38,17,-29
28299,-100000,17968,-3125,2046,-38,17,-29
28301,-100000,17968,-3125,2040,-38,16,-29
28302,-99218,17187,-2343,2040,-38,17,-29
28303,-99218,17187,-2343,2033,-38,17,-29
28305,-99218,17187,-2343,2045,-38,17,-29
28306,-99218,17187,-2343,2037,-38,17,-29
28308,-99218,17187,-2343,2042,-38,17,-29
28309,-99218,17187,-2343,2051,-38,17,-29
28311,-99218,17968,-2343,2048,-38,17,-29
28312,-99218,17968,-2343,2041,-38,17,-29
28314,-99218,17968,-2343,2041,-38,17,-29
28315,-99218,17968,-2343,2049,-38,17,-29
28317,-99218,17968,-2343,2047,-38,17,-29
28318,-99218,17968,-2343,2038,-38,17,-29
28320,-99218,17968,-2343,2031,-38,16,-29
28321,-98437,17968,-1562,2054,-38,16,-29
28323,-98437,17968,-1562,2041,-38,16,-29
28324,-98437,17968,-1562,2041,-38,16,-29
28327,-98437,17968,-1562,2043,-38,16,-29
28328,-98437,17968,-1562,2043,-39,16,-29
28330,-98437,17968,-1562,2054,-39,16,-29
28331,-100000,17187,-3906,2041,-39,16,-29
28333,-100000,17187,-3906,2040,-39,16,-29
28334,-100000,17187,-3906,2045,-39,16,-29
28336,-100000,17187,-3906,2046,-39,16,-29
28337,-100000,17187,-3906,2046,-39,16,-29
28339,-100000,17187,-3906,2052,-39,16,-29
28340,-100000,17187,-3906,2043,-38,16,-29
28342,-100000,17187,-3125,2038,-38,16,-29
28343,-100000,17187,-3125,2040,-38,16,-29
28345,-100000,17187,-3125,2045,-39,16,-29
28347,-100000,17187,-3125,2045,-38,16,-29
28349,-100000,17187,-3125,2035,-38,16,-29
28351,-100000,17187,-3125,2046,-39,16,-29
28353,-98437,17187,0,2047,-38,16,-29
28355,-98437,17187,0,2035,-39,16,-29
28357,-98437,17187,0,2038,-39,16,-29
28359,-98437,17187,0,2048,-39,16,-29
28361,-98437,17187,0,2035,-39,16,-29
28363,-100000,18750,-2343,2047,-39,16,-29
28365,-100000,18750,-2343,2042,-39,15,-29
28367,-100000,18750,-2343,2038,-39,15,-29
28369,-100000,18750,-2343,2045,-39,15,-29
28371,-100000,18750,-2343,2042,-39,15,-29
28373,-100781,17187,-3125,2047,-39,15,-29
28375,-100781,17187,-3125,2046,-39,15,-29
28377,-100781,17187,-3125,2041,-40,15,-29
28379,-100781,17187,-3125,2035,-40,15,-29
28381,-100781,17187,-3125,2033,-40,15,-29
28383,-100000,17187,-1562,2045,-40,14,-29
28385,-100000,17187,-1562,2054,-40,14,-29
28387,-100000,17187,-1562,2043,-40,14,-29
28389,-100000,17187,-1562,2031,-40,14,-29
28391,-100000,17187,-1562,2053,-40,14,-29
28393,-100000,17968,-3906,2043,-40,14,-29
28395,-100000,17968,-3906,2051,-40,14,-29
28397,-100000,17968,-3906,2048,-40,14,-29
28399,-100000,17968,-3906,2040,-40,13,-29
28401,-100000,17968,-3906,2047,-40,13,-29
28403,-99218,16406,-3125,2043,-40,13,-29
28405,-99218,16406,-3125,2048,-41,13,-29
28407,-99218,16406,-3125,2046,-41,13,-29
28409,-99218,16406,-3125,2042,-41,13,-29
28411,-99218,16406,-3125,2041,-41,13,-29
28413,-100781,16406,-2343,2031,-41,13,-30
28415,-100781,16406,-2343,2033,-41,13,-30
28417,-100781,16406,-2343,2042,-41,13,-30
28419,-100781,16406,-2343,2038,-42,13,-30
28421,-100781,16406,-2343,2038,-42,13,-30
28423,-100000,15625,-3125,2042,-42,13,-30
28425,-100000,15625,-3125,2042,-42,13,-30
28427,-100000,15625,-3125,2041,-42,13,-30
28429,-100000,15625,-3125,2042,-42,13,-30
28431,-100000,15625,-3125,2035,-42,13,-30
28433,-100000,17187,-2343,2036,-42,13,-30
28435,-100000,17187,-2343,2036,-42,13,-30
28437,-100000,17187,-2343,2042,-42,13,-30
28439,-100000,17187,-2343,2035,-42,13,-30
28441,-100000,17187,-2343,2043,-43,13,-30
28443,-100781,17187,-4687,2038,-43,13,-31
28445,-100781,17187,-4687,2031,-43,13,-31
28447,-100781,17187,-4687,2046,-43,13,-31
28449,-100781,17187,-4687,2047,-43,13,-31
28451,-100781,17187,-4687,2038,-43,13,-31
28453,-100781,17187,-3906,2041,-44,13,-31
28455,-100781,17187,-3906,2041,-44,13,-31
28457,-100781,17187,-3906,2041,-44,13,-31
28459,-100781,17187,-3906,2040,-44,13,-31
28510,-100781,15625,-4687,2045,-47,12,-31
28511,-100781,15625,-4687,2046,-47,12,-31
28513,-100781,15625,-4687,2041,-47,12,-31
28514,-100000,15625,-3906,2041,-47,12,-31
28516,-100000,15625,-3906,2035,-48,12,-32
28518,-100000,15625,-3906,2042,-48,12,-32
28519,-100000,15625,-3906,2037,-48,12,-32
28521,-100000,15625,-3906,2042,-48,12,-32
28522,-100000,15625,-3906,2046,-48,12,-32
28524,-100000,15625,-3906,2041,-48,12,-32
28525,-100000,15625,-3906,2042,-48,12,-32
28526,-100000,15625,-3906,2036,-48,12,-31
28528,-100000,15625,-3906,2041,-48,12,-32
28529,-100000,15625,-3906,2038,-48,12,-32
28531,-100000,15625,-3906,2040,-49,12,-32
28532,-100000,15625,-3906,2032,-49,12,-31
28534,-101562,16406,-3125,2045,-49,12,-31
28535,-101562,16406,-3125,2038,-49,12,-31
28537,-101562,16406,-3125,2035,-49,13,-32
28538,-101562,16406,-3125,2046,-49,13,-32
28540,-101562,16406,-3125,2040,-50,13,-32
28542,-101562,16406,-3125,2053,-50,13,-32
28543,-101562,16406,-3125,2040,-50,13,-32
28545,-100781,14843,-3906,2040,-50,13,-32
28546,-100781,14843,-3906,2047,-50,13,-32
28548,-100781,14843,-3906,2045,-50,13,-32
28549,-100781,14843,-3906,2040,-50,13,-31
28550,-100781,14843,-3906,2031,-50,13,-31
28552,-100781,14843,-3906,2043,-50,13,-31
28553,-100781,14843,-3125,2051,-51,13,-32
28555,-100781,14843,-3125,2047,-51,13,-32
28556,-100781,14843,-3125,2041,-51,14,-32
28558,-100781,14843,-3125,2040,-51,14,-32
28559,-100781,14843,-3125,2046,-51,13,-32
28563,-100781,14843,-3125,2047,-51,13,-32
28564,-100781,15625,-4687,2041,-51,13,-32
28566,-100781,15625,-4687,2040,-52,13,-32
28567,-100781,15625,-4687,2036,-52,14,-32
28569,-100781,15625,-4687,2051,-52,14,-32
28570,-100781,15625,-4687,2041,-52,14,-32
28572,-100781,15625,-4687,2033,-52,14,-32
28573,-100781,15625,-4687,2041,-52,14,-32
28575,-101562,16406,-3125,2040,-52,14,-32
28576,-101562,16406,-3125,2042,-52,14,-32
28578,-101562,16406,-3125,2043,-52,14,-32
28579,-101562,16406,-3125,2043,-52,14,-32
28581,-101562,16406,-3125,2040,-52,14,-32
28582,-101562,16406,-3125,2057,-52,14,-32
28584,-101562,16406,-3125,2031,-52,14,-32
28585,-101562,16406,-3125,2041,-53,14,-32
28587,-101562,16406,-3125,2035,-53,14,-32
28588,-101562,16406,-3125,2037,-53,15,-32
28590,-101562,16406,-3125,2041,-53,15,-32
28591,-101562,16406,-3125,2046,-53,15,-32
28593,-101562,16406,-3125,2041,-53,15,-32
28594,-101562,15625,-5468,2035,-53,15,-32
28596,-101562,15625,-5468,2038,-53,15,-32
28597,-101562,15625,-5468,2047,-54,15,-32
28599,-101562,15625,-5468,2042,-54,15,-32
28600,-101562,15625,-5468,2041,-54,15,-32
28602,-101562,15625,-5468,2043,-54,15,-32
28603,-101562,15625,-5468,2037,-54,15,-32
28604,-100781,15625,-2343,2031,-54,15,-32
28606,-100781,15625,-2343,2036,-54,15,-32
28607,-100781,15625,-2343,2046,-54,15,-32
28609,-100781,15625,-2343,2042,-54,15,-32
28610,-100781,15625,-2343,2032,-54,15,-32
28612,-100781,15625,-2343,2049,-54,15,-32
28613,-100781,15625,-2343,2041,-55,16,-32
28616,-101562,15625,-3125,2043,-55,16,-33
28643,-100781,16406,-3125,2051,-56,17,-33
28645,-100781,15625,-3906,2045,-56,17,-33
28646,-100781,15625,-3906,2041,-56,17,-33
28648,-100781,15625,-3906,2045,-56,18,-33
28649,-100781,15625,-3906,2041,-57,18,-33
28651,-100781,15625,-3906,2032,-57,18,-33
28652,-100781,15625,-3906,2037,-57,18,-33
28654,-100781,15625,-3906,2031,-57,17,-32
28655,-100781,14843,-2343,2038,-57,17,-32
28657,-100781,14843,-2343,2038,-57,17,-32
28658,-100781,14843,-2343,2042,-57,17,-32
28660,-100781,14843,-2343,2037,-58,18,-32
28661,-100781,14843,-2343,2041,-58,18,-32
28663,-100781,14843,-2343,2042,-58,18,-32
28664,-100781,14843,-2343,2046,-58,18,-32
28666,-101562,17187,-3906,2041,-58,18,-32
28667,-101562,17187,-3906,2037,-58,18,-32
28669,-101562,17187,-3906,2047,-58,18,-32
28670,-101562,17187,-3906,2033,-58,18,-32
28672,-101562,17187,-3906,2035,-58,18,-32
28673,-101562,17187,-3906,2035,-58,18,-32
28675,-101562,17187,-3906,2049,-58,18,-33
28676,-100781,16406,-2343,2037,-58,18,-33
28678,-100781,16406,-2343,2040,-59,18,-33
28679,-100781,16406,-2343,2043,-59,18,-33
28681,-100781,16406,-2343,2032,-59,18,-33
28682,-100781,16406,-2343,2041,-59,18,-32
28684,-100781,16406,-2343,2036,-59,18,-32
28685,-101562,17968,-3906,2045,-59,18,-32
28687,-101562,17968,-3906,2038,-59,19,-32
28688,-101562,17968,-3906,2042,-59,18,-32
28690,-101562,17968,-3906,2041,-59,18,-32
28691,-101562,17968,-3906,2043,-59,19,-32
28693,-101562,17968,-3906,2041,-59,19,-32
28696,-100781,16406,-2343,2045,-60,19,-33
28697,-100781,16406,-2343,2036,-60,19,-33
28699,-100781,16406,-2343,2046,-60,19,-33
28700,-100781,16406,-2343,2042,-60,19,-33
28702,-100781,16406,-2343,2043,-60,19,-33
28703,-100781,16406,-2343,2051,-60,19,-33
28705,-100781,16406,-2343,2037,-60,19,-33
28706,-100000,15625,-2343,2056,-60,19,-32
28708,-100000,15625,-2343,2035,-60,20,-32
28709,-100000,15625,-2343,2043,-60,20,-32
28711,-100000,15625,-2343,2052,-60,20,-32
28712,-100000,15625,-2343,2045,-60,20,-33
28714,-100000,15625,-2343,2046,-61,20,-33
28716,-100781,15625,-3125,2053,-61,20,-33
28717,-100781,15625,-3125,2035,-61,20,-33
28719,-100781,15625,-3125,2046,-61,20,-32
28720,-100781,15625,-3125,2042,-61,20,-32
28722,-100781,15625,-3125,2031,-61,20,-33
28723,-100781,15625,-3125,2047,-61,20,-33
28725,-100781,15625,-3125,2056,-61,20,-33
28726,-100781,16406,-3125,2043,-61,20,-33
28727,-100781,16406,-3125,2040,-61,20,-33
28729,-100781,16406,-3125,2051,-61,20,-33
28730,-100781,16406,-3125,2042,-61,20,-33
28732,-100781,16406,-3125,2042,-61,20,-33
28733,-100781,16406,-3125,2046,-61,20,-33
28735,-100781,16406,-3125,2040,-61,20,-33
28736,-100781,17187,-3125,2048,-61,20,-33
28738,-100781,17187,-3125,2038,-61,20,-33
28739,-100781,17187,-3125,2051,-61,20,-33
28741,-100781,17187,-3125,2035,-61,20,-33
28742,-100781,17187,-3125,2042,-61,20,-33
28744,-100781,17187,-3125,2037,-61,20,-33
28745,-100781,17187,-3125,2037,-61,20,-33
28748,-100000,15625,-3125,2042,-62,20,-33
28767,-100000,16406,-2343,2040,-63,20,-33
28768,-100000,16406,-2343,2041,-63,20,-33
28770,-100000,16406,-2343,2052,-63,20,-33
28771,-100000,16406,-2343,2040,-63,20,-33
28773,-100000,16406,-2343,2041,-63,20,-33
28774,-100000,16406,-2343,2045,-63,21,-33
28776,-100000,16406,-2343,2041,-63,21,-33
28777,-99218,16406,-3125,2045,-63,21,-33
28779,-99218,16406,-3125,2041,-63,21,-33
28780,-99218,16406,-3125,2045,-63,21,-33
28782,-99218,16406,-3125,2046,-63,21,-33
28783,-99218,16406,-3125,2042,-63,21,-33
28785,-99218,16406,-3125,2042,-63,21,-33
28786,-99218,16406,-3125,2051,-63,21,-33
28787,-100000,16406,-2343,2043,-63,21,-33
28789,-100000,16406,-2343,2051,-63,21,-33
28791,-100000,16406,-2343,2046,-63,21,-33
28792,-100000,16406,-2343,2041,-63,21,-33
28794,-100000,16406,-2343,2049,-63,22,-33
28795,-100000,16406,-2343,2035,-63,22,-33
28797,-100781,17187,-2343,2046,-63,22,-33
28798,-100781,17187,-2343,2036,-63,21,-33
28800,-100781,17187,-2343,2049,-63,21,-33
28801,-100781,17187,-2343,2049,-63,22,-33
28803,-100781,17187,-2343,2041,-63,22,-33
28804,-100781,17187,-2343,2046,-63,22,-33
28806,-100781,17187,-2343,2037,-63,22,-33
28807,-100000,16406,-2343,2040,-63,22,-33
28809,-100000,16406,-2343,2041,-63,22,-33
28810,-100000,16406,-2343,2038,-63,22,-33
28811,-100000,16406,-2343,2040,-63,22,-33
28813,-100000,16406,-2343,2043,-63,22,-33
28814,-100000,16406,-2343,2041,-63,21,-33
28816,-100000,16406,-2343,2035,-63,21,-33
28818,-100000,17968,-2343,2046,-63,21,-33
28820,-100000,17968,-2343,2041,-63,22,-33
28821,-100000,17968,-2343,2049,-63,22,-32
28823,-100000,17968,-2343,2037,-63,22,-32
28824,-100000,17968,-2343,2049,-63,22,-32
28826,-100000,17968,-2343,2038,-63,22,-32
28827,-100000,17187,-2343,2052,-63,22,-32
28829,-100000,17187,-2343,2040,-63,22,-32
28830,-100000,17187,-2343,2038,-63,22,-32
28832,-100000,17187,-2343,2054,-63,22,-31
28833,-100000,17187,-2343,2033,-63,22,-31
28835,-100000,17187,-2343,2045,-63,22,-31
28836,-100000,17187,-2343,2041,-63,22,-31
28838,-99218,15625,-1562,2048,-63,22,-31
28839,-99218,15625,-1562,2036,-63,22,-31
28841,-99218,15625,-1562,2036,-63,22,-31
28842,-99218,15625,-1562,2042,-63,22,-31
28844,-99218,15625,-1562,2041,-64,22,-31
28845,-99218,15625,-1562,2038,-64,22,-31
28847,-99218,15625,-1562,2045,-64,22,-31
28848,-99218,16406,-781,2048,-64,22,-31
28850,-99218,16406,-781,2038,-64,22,-31
28851,-99218,16406,-781,2041,-64,22,-31
28853,-99218,16406,-781,2036,-64,22,-31
28855,-99218,16406,-781,2038,-64,22,-31
28857,-99218,16406,-781,2038,-64,22,-31
28859,-99218,16406,-2343,2040,-64,22,-31
28861,-99218,16406,-2343,2046,-64,22,-30
28863,-99218,16406,-2343,2046,-64,22,-30
28865,-99218,16406,-2343,2040,-64,22,-30
28867,-99218,16406,-2343,2040,-64,22,-31
28869,-98437,16406,-1562,2045,-64,23,-31
28871,-98437,16406,-1562,2042,-64,23,-31
28873,-98437,16406,-1562,2051,-64,23,-30
28875,-98437,16406,-1562,2035,-64,23,-30
28877,-98437,16406,-1562,2049,-64,23,-30
28879,-99218,16406,-2343,2036,-64,23,-31
28899,-99218,16406,-1562,2045,-64,25,-30
28900,-99218,16406,-1562,2038,-64,25,-30
28902,-99218,16406,-1562,2045,-64,25,-30
28903,-99218,16406,-1562,2041,-64,26,-30
28905,-99218,16406,-1562,2042,-64,26,-30
28906,-99218,16406,-1562,2036,-64,26,-30
28908,-99218,16406,-781,2040,-64,26,-30
28909,-99218,16406,-781,2049,-64,26,-30
28911,-99218,16406,-781,2038,-64,26,-30
28912,-99218,16406,-781,2041,-64,26,-30
28913,-99218,16406,-781,2042,-64,26,-30
28915,-99218,16406,-781,2051,-64,26,-30
28917,-99218,16406,-781,2037,-64,26,-29
28918,-99218,16406,-2343,2043,-64,26,-29
28920,-99218,16406,-2343,2045,-64,26,-29
28921,-99218,16406,-2343,2043,-64,26,-29
28923,-99218,16406,-2343,2036,-64,26,-29
28924,-99218,16406,-2343,2038,-64,26,-29
28925,-99218,16406,-2343,2038,-64,26,-29
28927,-99218,16406,-2343,2031,-64,26,-29
28928,-99218,15625,-2343,2047,-64,26,-29
28930,-99218,15625,-2343,2041,-64,26,-29
28931,-99218,15625,-2343,2041,-64,26,-29
28933,-99218,15625,-2343,2040,-64,26,-29
28934,-99218,15625,-2343,2036,-64,26,-29
28936,-99218,15625,-2343,2037,-64,26,-29
28937,-99218,15625,-2343,2049,-64,26,-29
28939,-98437,14843,-781,2036,-64,26,-29
28940,-98437,14843,-781,2051,-64,26,-29
28942,-98437,14843,-781,2031,-64,27,-29
28943,-98437,14843,-781,2043,-64,26,-29
28945,-98437,14843,-781,2046,-64,26,-29
28946,-98437,14843,-781,2041,-64,26,-29
28948,-98437,14843,-781,2040,-64,26,-29
28949,-98437,17187,-781,2043,-64,26,-29
28951,-98437,17187,-781,2040,-64,26,-29
28954,-98437,17187,-781,2045,-63,26,-29
28955,-98437,17187,-781,2038,-63,26,-29
28957,-98437,17187,-781,2042,-64,26,-29
28959,-99218,16406,0,2041,-63,26,-29
28961,-99218,16406,0,2041,-63,26,-29
28963,-99218,16406,0,2043,-63,26,-29
28965,-99218,16406,0,2036,-63,26,-29
28967,-99218,16406,0,2047,-63,26,-29
28969,-99218,16406,-781,2051,-63,26,-29
28971,-99218,16406,-781,2048,-63,26,-29
28973,-99218,16406,-781,2049,-63,26,-29
28975,-99218,16406,-781,2045,-63,26,-29
28977,-99218,16406,-781,2042,-63,26,-29
28979,-98437,16406,-781,2036,-63,26,-29
28981,-98437,16406,-781,2049,-63,26,-29
28983,-98437,16406,-781,2046,-63,27,-29
28985,-98437,16406,-781,2042,-63,27,-29
28987,-98437,16406,-781,2043,-63,27,-29
28989,-98437,15625,-781,2040,-63,27,-29
28991,-98437,15625,-781,2048,-63,27,-29
28993,-98437,15625,-781,2040,-63,27,-29
28995,-98437,15625,-781,2042,-63,27,-29
28997,-98437,15625,-781,2048,-63,27,-29
28999,-99218,16406,-781,2047,-62,27,-29
29001,-99218,16406,-781,2048,-62,27,-29
29003,-99218,16406,-781,2040,-62,27,-29
29005,-99218,16406,-781,2036,-62,27,-29
29007,-99218,16406,-781,2041,-62,27,-29
29009,-98437,15625,-1562,2041,-62,27,-29
29011,-98437,15625,-1562,2038,-62,27,-29
29013,-98437,15625,-1562,2061,-62,27,-29
29015,-98437,15625,-1562,2047,-62,28,-29
29017,-98437,15625,-1562,2049,-62,28,-29
29019,-98437,15625,-1562,2046,-62,28,-29
29021,-98437,16406,-781,2047,-62,28,-29
29023,-98437,16406,-781,2032,-62,28,-29
29063,-98437,16406,-1562,2041,-61,31,-28
29065,-98437,16406,-1562,2046,-61,31,-28
29066,-98437,16406,-1562,2045,-61,31,-28
29068,-98437,16406,-1562,2043,-61,31,-28
29069,-98437,15625,-3125,2041,-61,31,-28
29071,-98437,15625,-3125,2040,-61,31,-28
29072,-98437,15625,-3125,2035,-61,31,-28
29074,-98437,15625,-3125,2033,-61,31,-28
29075,-98437,15625,-3125,2052,-61,31,-28
29077,-98437,15625,-3125,2040,-61,31,-28
29078,-98437,15625,-3125,2041,-61,31,-28
29080,-98437,16406,-3125,2049,-61,31,-28
29081,-98437,16406,-3125,2035,-61,31,-28
29083,-98437,16406,-3125,2045,-61,31,-28
29084,-98437,16406,-3125,2038,-61,31,-28
29086,-98437,16406,-3125,2046,-61,31,-28
29087,-98437,16406,-3125,2033,-61,31,-28
29089,-98437,16406,-3125,2042,-61,32,-28
29090,-98437,15625,-1562,2042,-61,32,-28
29092,-98437,15625,-1562,2042,-61,32,-28
29093,-98437,15625,-1562,2043,-61,31,-28
29095,-98437,15625,-1562,2042,-61,31,-27
29096,-98437,15625,-1562,2036,-61,32,-27
29098,-98437,15625,-1562,2036,-61,32,-27
29099,-98437,15625,-1562,2043,-61,31,-27
29101,-99218,14062,-1562,2043,-61,31,-27
29102,-99218,14062,-1562,2045,-61,31,-27
29104,-99218,14062,-1562,2048,-61,31,-27
29105,-99218,14062,-1562,2041,-61,31,-27
29107,-99218,14062,-1562,2033,-61,31,-27
29108,-99218,14062,-1562,2040,-61,31,-27
29110,-99218,14062,-1562,2041,-61,31,-27
29111,-98437,14843,-781,2036,-61,31,-27
29113,-98437,14843,-781,2038,-61,31,-27
29114,-98437,14843,-781,2041,-61,31,-27
29116,-98437,14843,-781,2040,-61,32,-27
29118,-98437,14843,-781,2040,-61,32,-27
29119,-98437,14843,-781,2038,-61,32,-27
29121,-98437,15625,-2343,2038,-61,32,-27
29122,-98437,15625,-2343,2038,-61,32,-27
29124,-98437,15625,-2343,2043,-60,32,-27
29125,-98437,15625,-2343,2053,-60,32,-27
29127,-98437,15625,-2343,2051,-61,32,-27
29128,-98437,15625,-2343,2043,-61,32,-27
29130,-98437,15625,-2343,2046,-61,32,-27
29131,-97656,14062,-1562,2045,-60,32,-27
29133,-97656,14062,-1562,2040,-60,32,-27
29134,-97656,14062,-1562,2051,-60,33,-27
29136,-97656,14062,-1562,2046,-60,33,-27
29137,-97656,14062,-1562,2043,-61,33,-27
29139,-97656,14062,-1562,2041,-61,33,-27
29140,-98437,15625,-1562,2040,-61,33,-27
29142,-98437,15625,-1562,2043,-61,33,-27
29143,-98437,15625,-1562,2045,-61,33,-27
29145,-98437,15625,-1562,2041,-61,33,-27
29146,-98437,15625,-1562,2031,-61,34,-27
29148,-98437,15625,-1562,2040,-60,34,-27
29149,-98437,15625,-1562,2051,-60,34,-27
29151,-98437,15625,-2343,2041,-60,34,-27
29152,-98437,15625,-2343,2036,-60,34,-27
29154,-98437,15625,-2343,2041,-60,35,-27
29155,-98437,15625,-2343,2053,-60,35,-27
29157,-98437,15625,-2343,2038,-60,35,-27
29158,-98437,15625,-2343,2048,-60,35,-27
29160,-98437,15625,-2343,2041,-60,35,-27
29161,-97656,14843,-1562,2045,-60,35,-27
29163,-97656,14843,-1562,2042,-60,35,-27
29164,-97656,14843,-1562,2045,-60,35,-27
29166,-97656,14843,-1562,2053,-60,35,-27
29167,-97656,14843,-1562,2035,-60,36,-27
29169,-97656,14843,-1562,2040,-60,36,-27
29170,-97656,14843,-1562,2040,-60,36,-27
29226,-98437,15625,-1562,2037,-60,37,-27
29228,-98437,15625,-1562,2037,-60,37,-27
29229,-98437,15625,-1562,2047,-60,37,-27
29231,-98437,15625,-1562,2033,-60,37,-27
29232,-100000,17187,-781,2037,-60,37,-27
29234,-100000,17187,-781,2040,-60,37,-27
29235,-100000,17187,-781,2038,-60,37,-27
29237,-100000,17187,-781,2032,-60,37,-27
29238,-100000,17187,-781,2036,-60,37,-27
29240,-100000,17187,-781,2042,-60,37,-27
29241,-100000,17187,-781,2037,-60,37,-27
29243,-98437,16406,-1562,2041,-60,37,-27
29244,-98437,16406,-1562,2038,-60,37,-28
29246,-98437,16406,-1562,2035,-60,37,-28
29247,-98437,16406,-1562,2035,-60,37,-28
29249,-98437,16406,-1562,2041,-60,37,-28
29250,-98437,16406,-1562,2036,-60,37,-28
29252,-98437,16406,-1562,2045,-60,37,-28
29253,-98437,16406,-1562,2045,-60,37,-28
29255,-98437,16406,-1562,2041,-59,37,-28
29256,-98437,16406,-1562,2038,-59,37,-28
29258,-98437,16406,-1562,2046,-59,37,-28
29259,-98437,16406,-1562,2037,-59,37,-28
29261,-98437,16406,-1562,2042,-59,37,-28
29262,-99218,14843,-1562,2040,-59,37,-28
29264,-99218,14843,-1562,2036,-60,37,-28
29265,-99218,14843,-1562,2041,-60,37,-28
29267,-99218,14843,-1562,2038,-60,37,-28
29268,-99218,14843,-1562,2051,-60,37,-28
29270,-99218,14843,-1562,2036,-60,37,-28
29271,-99218,14843,-1562,2042,-59,37,-27
29273,-99218,16406,-2343,2042,-59,37,-27
29274,-99218,16406,-2343,2033,-59,37,-27
29276,-99218,16406,-2343,2046,-60,37,-27
29277,-99218,16406,-2343,2051,-60,38,-27
29279,-99218,16406,-2343,2042,-60,38,-27
29282,-99218,16406,-2343,2042,-60,38,-27
29283,-99218,16406,-2343,2049,-59,38,-27
29285,-99218,16406,-2343,2048,-59,38,-27
29286,-99218,16406,-2343,2041,-59,38,-27
29288,-99218,16406,-2343,2041,-59,39,-27
29289,-99218,16406,-2343,2043,-59,39,-27
29291,-99218,16406,-2343,2052,-59,39,-27
29292,-99218,16406,-2343,2038,-59,39,-27
29294,-99218,16406,-2343,2046,-59,39,-27
29295,-99218,16406,-2343,2046,-59,39,-27
29297,-99218,16406,-2343,2040,-59,39,-27
29298,-99218,16406,-2343,2041,-59,39,-27
29300,-99218,16406,-2343,2041,-59,39,-27
29301,-99218,16406,-2343,2033,-59,39,-27
29303,-98437,15625,-2343,2042,-59,39,-27
29304,-98437,15625,-2343,2041,-59,39,-27
29306,-98437,15625,-2343,2036,-60,39,-27
29307,-98437,15625,-2343,2043,-60,39,-27
29309,-98437,15625,-2343,2031,-60,39,-27
29310,-98437,15625,-2343,2051,-60,39,-27
29312,-98437,15625,-2343,2036,-60,39,-27
29313,-99218,17187,-1562,2048,-60,39,-27
29314,-99218,17187,-1562,2040,-60,39,-27
29316,-99218,17187,-1562,2036,-60,39,-27
29318,-99218,17187,-1562,2046,-60,39,-27
29319,-99218,17187,-1562,2035,-60,39,-27
29321,-99218,17187,-1562,2037,-60,39,-27
29322,-99218,17187,-1562,2047,-60,39,-27
29324,-98437,16406,-1562,2046,-60,39,-27
29325,-98437,16406,-1562,2035,-60,39,-27
29327,-98437,16406,-1562,2040,-60,39,-27
29328,-98437,16406,-1562,2042,-60,39,-27
29330,-98437,16406,-1562,2045,-60,39,-27
29331,-98437,16406,-1562,2035,-60,39,-27
29332,-100000,16406,-3125,2040,-60,39,-27
29350,-98437,16406,-1562,2035,-61,39,-27
29352,-98437,16406,-1562,2045,-61,39,-27
29353,-99218,17187,-1562,2049,-61,39,-27
29355,-99218,17187,-1562,2038,-61,39,-27
29356,-99218,17187,-1562,2041,-61,39,-27
29358,-99218,17187,-1562,2047,-61,39,-27
29359,-99218,17187,-1562,2046,-61,39,-27
29361,-99218,17187,-1562,2040,-61,39,-27
29362,-99218,17187,-1562,2045,-61,39,-27
29364,-99218,16406,-2343,2032,-61,39,-27
29365,-99218,16406,-2343,2052,-61,39,-27
29367,-99218,16406,-2343,2051,-61,39,-27
29368,-99218,16406,-2343,2037,-61,39,-27
29370,-99218,16406,-2343,2046,-61,39,-27
29371,-99218,16406,-2343,2049,-61,39,-27
29373,-99218,16406,-2343,2032,-61,39,-27
29374,-99218,15625,-2343,2038,-61,39,-27
29376,-99218,15625,-2343,2037,-61,39,-27
29377,-99218,15625,-2343,2041,-61,39,-27
29379,-99218,15625,-2343,2040,-61,39,-27
29380,-99218,15625,-2343,2042,-61,39,-27
29382,-99218,15625,-2343,2041,-61,39,-27
29383,-99218,15625,-1562,2048,-61,39,-27
29384,-99218,15625,-1562,2036,-61,39,-27
29386,-99218,15625,-1562,2037,-61,40,-27
29387,-99218,15625,-1562,2041,-61,40,-27
29389,-99218,15625,-1562,2048,-61,40,-27
29391,-99218,15625,-1562,2033,-61,40,-27
29392,-99218,15625,-1562,2053,-61,40,-27
29394,-99218,17187,-3125,2053,-61,40,-27
29395,-99218,17187,-3125,2049,-61,40,-27
29397,-99218,17187,-3125,2036,-61,40,-27
29398,-99218,17187,-3125,2042,-61,40,-27
29400,-99218,17187,-3125,2032,-61,40,-27
29401,-99218,17187,-3125,2047,-61,40,-27
29403,-99218,17187,-3125,2043,-62,40,-27
29433,-99218,16406,-2343,2037,-62,40,-28
29435,-99218,15625,-2343,2046,-63,40,-28
29436,-99218,15625,-2343,2038,-63,40,-28
29438,-99218,15625,-2343,2038,-63,40,-28
29439,-99218,15625,-2343,2047,-63,40,-27
29441,-99218,15625,-2343,2038,-63,40,-27
29442,-99218,15625,-2343,2033,-63,40,-27
29444,-98437,16406,-3125,2053,-63,40,-27
29445,-98437,16406,-3125,2037,-63,40,-27
29447,-98437,16406,-3125,2041,-63,40,-27
29448,-98437,16406,-3125,2040,-63,40,-27
29450,-98437,16406,-3125,2036,-63,40,-27
29451,-98437,16406,-3125,2041,-63,40,-27
29453,-98437,16406,-3125,2051,-63,40,-27
29454,-98437,15625,-1562,2042,-63,40,-27
29456,-98437,15625,-1562,2040,-63,39,-27
29457,-98437,15625,-1562,2032,-63,39,-27
29459,-98437,15625,-1562,2041,-63,39,-27
29460,-98437,15625,-1562,2043,-63,39,-27
29462,-98437,15625,-1562,2038,-63,39,-27
29463,-98437,15625,-1562,2048,-63,39,-27
29465,-98437,15625,-1562,2035,-63,38,-27
29466,-98437,15625,-1562,2035,-63,38,-27
29468,-98437,15625,-1562,2045,-63,38,-27
29469,-98437,15625,-1562,2027,-63,38,-27
29471,-98437,15625,-1562,2040,-63,38,-27
29472,-98437,15625,-1562,2032,-63,38,-27
29474,-98437,15625,-1562,2032,-63,38,-27
29475,-96875,15625,-781,2041,-63,38,-27
29476,-96875,15625,-781,2033,-63,38,-27
29478,-96875,15625,-781,2043,-63,38,-27
29479,-96875,15625,-781,2037,-63,38,-27
29481,-96875,15625,-781,2042,-63,38,-27
29482,-96875,15625,-781,2042,-63,38,-27
29484,-96875,15625,-781,2041,-63,38,-27
29487,-100000,15625,-2343,2037,-63,38,-27
29489,-100000,15625,-2343,2042,-63,38,-27
29490,-100000,15625,-2343,2045,-63,38,-27
29492,-100000,15625,-2343,2040,-63,38,-27
29493,-100000,15625,-2343,2046,-63,38,-27
29495,-98437,14843,-2343,2041,-63,38,-27
29496,-98437,14843,-2343,2040,-63,38,-27
29498,-98437,14843,-2343,2047,-63,38,-27
29499,-98437,14843,-2343,2036,-63,38,-27
29501,-98437,14843,-2343,2033,-63,38,-27
29502,-98437,14843,-2343,2043,-63,38,-27
29504,-98437,14843,-2343,2049,-63,38,-27
29505,-98437,16406,-781,2037,-63,38,-27
29507,-98437,16406,-781,2041,-63,38,-27
29508,-98437,16406,-781,2037,-63,38,-27
29510,-98437,16406,-781,2037,-63,38,-27
29511,-98437,16406,-781,2043,-63,38,-27
29513,-98437,16406,-781,2047,-63,38,-27
29514,-98437,16406,-781,2049,-63,38,-27
29516,-100000,16406,-2343,2042,-63,38,-27
29517,-100000,16406,-2343,2043,-63,38,-27
29519,-100000,16406,-2343,2033,-63,38,-27
29520,-100000,16406,-2343,2035,-64,38,-27
29522,-100000,16406,-2343,2033,-63,37,-27
29523,-100000,16406,-2343,2038,-64,37,-27
29525,-99218,17187,-2343,2045,-64,37,-27
29526,-99218,17187,-2343,2041,-64,38,-27
29528,-99218,17187,-2343,2033,-64,38,-27
29529,-99218,17187,-2343,2048,-64,38,-27
29531,-99218,17187,-2343,2036,-64,38,-27
29532,-99218,17187,-2343,2033,-64,38,-27
29534,-99218,17187,-2343,2038,-64,38,-27
29535,-97656,15625,-2343,2040,-64,38,-27
29537,-97656,15625,-2343,2047,-64,38,-27
29538,-97656,15625,-2343,2033,-64,38,-27
29540,-97656,15625,-2343,2040,-64,38,-27
29557,-98437,15625,-1562,2038,-64,38,-27
29559,-98437,15625,-1562,2040,-64,38,-27
29561,-98437,15625,-1562,2043,-64,38,-27
29562,-98437,15625,-1562,2041,-64,38,-27
29564,-98437,15625,-1562,2046,-64,38,-27
29565,-98437,15625,-1562,2041,-64,38,-27
29567,-98437,15625,-1562,2046,-64,38,-27
29568,-98437,15625,-1562,2041,-64,38,-27
29570,-98437,15625,-1562,2042,-64,38,-27
29571,-98437,15625,-1562,2035,-64,38,-27
29573,-98437,15625,-1562,2035,-64,38,-27
29574,-98437,15625,-1562,2033,-64,38,-27
29576,-98437,17187,-2343,2041,-64,38,-27
29577,-98437,17187,-2343,2043,-64,37,-27
29578,-98437,17187,-2343,2032,-64,37,-27
29580,-98437,17187,-2343,2040,-64,37,-27
29581,-98437,17187,-2343,2052,-64,37,-27
29583,-98437,17187,-2343,2045,-64,37,-27
29584,-98437,17187,-2343,2042,-64,37,-27
29586,-98437,14843,-781,2042,-64,37,-27
29587,-98437,14843,-781,2045,-64,37,-27
29589,-98437,14843,-781,2040,-64,37,-27
29590,-98437,14843,-781,2046,-64,36,-27
29592,-98437,14843,-781,2038,-64,36,-26
29593,-98437,14843,-781,2042,-64,36,-26
29595,-98437,14843,-781,2040,-64,36,-26
29596,-97656,15625,-2343,2045,-64,36,-26
29598,-97656,15625,-2343,2037,-64,36,-26
29599,-97656,15625,-2343,2047,-64,36,-26
29601,-97656,15625,-2343,2041,-64,36,-26
29602,-97656,15625,-2343,2038,-64,36,-26
29604,-97656,15625,-2343,2038,-64,36,-26
29605,-97656,15625,-2343,2042,-64,36,-26
29607,-98437,16406,-781,2038,-64,36,-26
29608,-98437,16406,-781,2043,-64,36,-26
29610,-98437,16406,-781,2040,-64,36,-26
29628,-98437,16406,-781,2038,-64,35,-26
29630,-98437,16406,-781,2045,-64,35,-26
29631,-98437,16406,-781,2032,-63,35,-26
29633,-98437,16406,-781,2037,-63,35,-26
29634,-98437,16406,-781,2036,-63,35,-26
29636,-96875,15625,0,2048,-63,35,-26
29637,-96875,15625,0,2045,-63,35,-26
29639,-96875,15625,0,2041,-63,35,-26
29640,-96875,15625,0,2036,-63,35,-26
29642,-96875,15625,0,2033,-63,35,-26
29643,-96875,15625,0,2041,-63,35,-26
29645,-96875,15625,0,2040,-63,35,-26
29646,-98437,15625,-1562,2042,-63,35,-26
29648,-98437,15625,-1562,2031,-63,35,-26
29649,-98437,15625,-1562,2035,-63,35,-26
29651,-98437,15625,-1562,2042,-63,35,-26
29652,-98437,15625,-1562,2027,-63,35,-26
29654,-98437,15625,-1562,2040,-63,35,-26
29655,-98437,15625,-1562,2033,-63,35,-26
29657,-97656,16406,-781,2033,-63,35,-26
29658,-97656,16406,-781,2037,-63,35,-26
29660,-97656,16406,-781,2036,-63,35,-26
29661,-97656,16406,-781,2040,-63,35,-26
29663,-97656,16406,-781,2038,-63,35,-26
29664,-97656,16406,-781,2035,-63,35,-26
29666,-97656,16406,-781,2048,-63,35,-26
29667,-98437,16406,-781,2041,-63,35,-26
29669,-98437,16406,-781,2045,-62,35,-26
29670,-98437,16406,-781,2046,-62,35,-26
29672,-98437,16406,-781,2041,-62,35,-26
29673,-98437,16406,-781,2040,-62,35,-26
29675,-98437,16406,-781,2038,-62,35,-26
29676,-96875,17187,0,2033,-62,35,-26
29678,-96875,17187,0,2041,-62,35,-26
29679,-96875,17187,0,2042,-62,35,-26
29681,-96875,17187,0,2043,-62,35,-26
29682,-96875,17187,0,2030,-62,35,-26
29685,-96875,17187,0,2041,-61,35,-26
29687,-97656,17187,0,2054,-61,35,-26
29688,-97656,17187,0,2040,-61,35,-26
29690,-97656,17187,0,2040,-61,35,-26
29692,-97656,17187,0,2043,-61,35,-26
29693,-97656,17187,0,2052,-61,35,-26
29695,-97656,17187,0,2040,-61,35,-26
29696,-97656,17187,0,2040,-61,34,-26
29697,-97656,17187,0,2031,-61,34,-26
29699,-97656,17187,0,2037,-61,34,-26
29700,-97656,17187,0,2040,-61,34,-26
29702,-97656,17187,0,2033,-61,34,-26
29703,-97656,17187,0,2047,-61,34,-26
29705,-97656,17187,0,2054,-61,34,-26
29706,-97656,17187,0,2047,-61,34,-26
29708,-96093,15625,-781,2041,-61,34,-26
29709,-96093,15625,-781,2041,-61,34,-26
29711,-96093,15625,-781,2037,-61,34,-26
29712,-96093,15625,-781,2043,-61,33,-26
29714,-96093,15625,-781,2042,-60,34,-26
29715,-96093,15625,-781,2031,-60,33,-26
29717,-96875,16406,781,2046,-60,33,-26
29718,-96875,16406,781,2033,-60,33,-26
29720,-96875,16406,781,2038,-60,33,-26
29721,-96875,16406,781,2032,-60,33,-26
29723,-96875,16406,781,2031,-60,33,-26
29724,-96875,16406,781,2035,-59,33,-26
29726,-96875,16406,781,2047,-59,33,-26
29727,-95312,16406,2343,2041,-59,33,-26
29729,-95312,16406,2343,2046,-59,33,-26
29731,-95312,16406,2343,2043,-59,33,-26
29733,-95312,16406,2343,2038,-59,33,-26
29735,-95312,16406,2343,2045,-59,33,-26
29737,-95312,16406,2343,2045,-59,33,-26
29739,-96875,16406,-781,2043,-59,33,-26
29741,-96875,16406,-781,2036,-58,33,-26
29743,-96875,16406,-781,2046,-58,33,-26
29745,-96875,16406,-781,2041,-58,33,-26
29764,-96875,16406,0,2052,-56,32,-26
29766,-96875,16406,0,2033,-56,32,-26
29768,-96093,17968,781,2043,-56,32,-26
29769,-96093,17968,781,2037,-56,32,-26
29771,-96093,17968,781,2042,-56,32,-26
29772,-96093,17968,781,2049,-56,32,-25
29774,-96093,17968,781,2049,-56,32,-25
29775,-96093,17968,781,2032,-56,32,-25
29777,-96093,17968,781,2033,-55,32,-25
29778,-95312,16406,1562,2043,-55,32,-25
29780,-95312,16406,1562,2043,-55,32,-25
29781,-95312,16406,1562,2036,-55,32,-25
29782,-95312,16406,1562,2042,-55,32,-25
29784,-95312,16406,1562,2040,-55,32,-25
29785,-95312,16406,1562,2037,-55,32,-25
29787,-95312,16406,1562,2051,-54,32,-25
29788,-97656,17968,1562,2041,-54,32,-25
29790,-97656,17968,1562,2037,-54,32,-24
29792,-97656,17968,1562,2047,-54,32,-24
29793,-97656,17968,1562,2038,-54,32,-24
29795,-97656,17968,1562,2041,-54,32,-24
29796,-97656,17968,1562,2048,-54,32,-24
29798,-97656,17968,1562,2031,-54,32,-24
29799,-96093,17968,0,2046,-54,32,-24
29800,-96093,17968,0,2038,-54,32,-24
29802,-96093,17968,0,2032,-54,32,-24
29803,-96093,17968,0,2042,-54,32,-24
29805,-96093,17968,0,2045,-54,31,-24
29806,-96093,17968,0,2036,-53,31,-24
29808,-96875,17968,-1562,2049,-53,31,-24
29809,-96875,17968,-1562,2042,-53,32,-23
29811,-96875,17968,-1562,2046,-53,31,-23
29812,-96875,17968,-1562,2037,-53,31,-23
29814,-96875,17968,-1562,2042,-53,31,-23
29815,-96875,17968,-1562,2041,-53,31,-23
29817,-96875,17968,-1562,2035,-52,31,-23
29819,-96093,17187,0,2031,-52,31,-23
29821,-96093,17187,0,2041,-52,31,-23
29823,-96093,17187,0,2049,-52,31,-23
29825,-96093,17187,0,2041,-51,31,-23
29827,-96093,17187,0,2040,-51,31,-23
29829,-96093,17187,0,2037,-51,30,-23
29831,-96093,17187,0,2042,-51,31,-23
29833,-96093,17187,0,2046,-50,30,-23
29835,-96093,17187,0,2046,-50,30,-23
29837,-96093,17187,0,2035,-50,30,-23
29839,-95312,16406,0,2036,-50,30,-23
29841,-95312,16406,0,2040,-49,30,-23
29843,-95312,16406,0,2032,-49,30,-23
29845,-95312,16406,0,2047,-49,30,-23
29847,-95312,16406,0,2043,-49,30,-22
29849,-96093,17187,781,2041,-49,30,-22
29851,-96093,17187,781,2037,-49,30,-23
29853,-96093,17187,781,2031,-49,29,-23
29855,-96093,17187,781,2048,-48,29,-22
29857,-96093,17187,781,2042,-48,30,-23
29859,-95312,17187,2343,2042,-48,30,-23
29861,-95312,17187,2343,2040,-48,30,-22
29863,-95312,17187,2343,2027,-48,30,-22
29865,-95312,17187,2343,2032,-48,29,-22
29867,-95312,17187,2343,2035,-48,29,-22
29869,-96093,15625,781,2030,-47,29,-22
29871,-96093,15625,781,2036,-47,29,-22
29873,-96093,15625,781,2035,-47,30,-22
29875,-96093,15625,781,2040,-46,29,-22
29877,-96093,15625,781,2043,-46,29,-22
29879,-96875,17187,-781,2036,-46,29,-22
29881,-96875,17187,-781,2038,-46,29,-22
29883,-96875,17187,-781,2036,-45,29,-22
29885,-96875,17187,-781,2031,-45,29,-22
29887,-96875,17187,-781,2045,-45,29,-22
29889,-97656,17187,0,2038,-44,30,-22
29891,-97656,17187,0,2041,-44,30,-22
29893,-97656,17187,0,2040,-44,30,-22
29895,-97656,17187,0,2037,-44,30,-21
29897,-97656,17187,0,2043,-43,29,-21
29899,-97656,17187,0,2049,-43,29,-21
29901,-96093,17187,781,2042,-43,29,-21
29903,-96093,17187,781,2038,-43,29,-22
29905,-96093,17187,781,2037,-43,29,-21
29907,-96093,17187,781,2041,-43,29,-22
29909,-96093,17187,781,2051,-43,29,-22
29911,-96875,17968,0,2036,-42,29,-21
29913,-96875,17968,0,2035,-42,29,-21
29915,-96875,17968,0,2048,-42,29,-21
29917,-96875,17968,0,2041,-42,29,-21
29919,-96875,17968,0,2037,-42,29,-21
29921,-96875,17968,-781,2043,-42,28,-21
29923,-96875,17968,-781,2041,-41,28,-21
29925,-96875,17968,-781,2049,-41,28,-21
29927,-96875,17968,-781,2045,-41,28,-21
29929,-96875,17968,-781,2047,-41,28,-20
29931,-96093,17968,-781,2036,-41,28,-20
29933,-96093,17968,-781,2041,-41,28,-20
29935,-96093,17968,-781,2046,-41,28,-20
29937,-96093,17968,-781,2045,-41,28,-20
29939,-96093,17968,-781,2038,-41,28,-20
29941,-96093,16406,-781,2043,-40,28,-20
29943,-96093,16406,-781,2046,-40,28,-20
29945,-96093,16406,-781,2042,-40,28,-20
29947,-96093,16406,-781,2051,-40,28,-20
29949,-96093,16406,-781,2040,-39,28,-20
29951,-96875,17968,0,2038,-39,28,-20
29953,-96875,17968,0,2033,-39,28,-20
29955,-96875,17968,0,2048,-39,28,-20
29957,-96875,17968,0,2041,-39,28,-20
29959,-96875,17968,0,2042,-38,28,-20
29961,-96875,17187,0,2047,-38,28,-20
29963,-96875,17187,0,2051,-38,27,-20
29965,-96875,17187,0,2033,-38,27,-20
29967,-96875,17187,0,2038,-38,27,-20
29969,-96875,17187,0,2043,-38,27,-20
29971,-96875,17187,-781,2038,-37,27,-20
29973,-96875,17187,-781,2043,-37,27,-20
30010,-97656,17187,-781,2046,-35,27,-19
30012,-97656,17187,-781,2036,-35,27,-19
30013,-97656,17187,-781,2043,-35,27,-19
30015,-97656,17187,-781,2043,-35,27,-19
30016,-97656,17187,-781,2046,-35,27,-19
30018,-97656,17187,-781,2042,-35,27,-19
30019,-97656,17187,-781,2036,-35,27,-19
30021,-96875,16406,-1562,2036,-35,27,-19
30022,-96875,16406,-1562,2041,-35,27,-19
30024,-96875,16406,-1562,2035,-35,27,-19
30025,-96875,16406,-1562,2046,-34,27,-19
30027,-96875,16406,-1562,2040,-34,27,-19
30028,-96875,16406,-1562,2036,-34,27,-19
30030,-96875,16406,-1562,2041,-34,27,-19
30031,-97656,17968,-1562,2042,-34,27,-19
30032,-97656,17968,-1562,2042,-34,27,-19
30034,-97656,17968,-1562,2037,-34,27,-19
30035,-97656,17968,-1562,2035,-33,27,-19
30037,-97656,17968,-1562,2038,-34,27,-19
30038,-97656,17968,-1562,2038,-34,27,-19
30040,-97656,17968,-1562,2033,-33,27,-19
30042,-97656,17968,-2343,2031,-34,27,-19
30043,-97656,17968,-2343,2046,-34,26,-19
30045,-97656,17968,-2343,2038,-34,26,-19
30046,-97656,17968,-2343,2036,-33,26,-19
30047,-97656,17968,-2343,2033,-33,26,-19
30049,-97656,17968,-2343,2033,-34,26,-19
30050,-97656,17968,-2343,2035,-34,26,-19
30052,-97656,17187,-2343,2041,-34,26,-19
30053,-97656,17187,-2343,2037,-33,26,-19
30055,-97656,17187,-2343,2040,-33,26,-19
30056,-97656,17187,-2343,2051,-33,26,-19
30058,-97656,17187,-2343,2043,-33,26,-19
30060,-97656,17187,-2343,2033,-33,26,-19
30063,-98437,17968,-2343,2046,-33,26,-18
30064,-98437,17968,-2343,2051,-33,26,-18
30066,-98437,17968,-2343,2049,-33,26,-18
30067,-98437,17968,-2343,2041,-33,26,-18
30069,-98437,17968,-2343,2051,-33,26,-18
30070,-98437,17968,-2343,2042,-33,26,-18
30072,-98437,17968,-3125,2035,-33,26,-18
30073,-98437,17968,-3125,2031,-33,26,-18
30075,-98437,17968,-3125,2036,-33,26,-18
30076,-98437,17968,-3125,2047,-33,25,-18
30078,-98437,17968,-3125,2045,-33,25,-18
30079,-98437,17968,-3125,2035,-33,25,-18
30081,-98437,17968,-3125,2031,-33,25,-18
30082,-98437,18750,-2343,2027,-33,25,-18
30084,-98437,18750,-2343,2045,-33,25,-18
30085,-98437,18750,-2343,2036,-33,25,-18
30087,-98437,18750,-2343,2032,-33,25,-18
30088,-98437,18750,-2343,2031,-33,25,-18
30089,-98437,18750,-2343,2038,-33,25,-18
30091,-98437,17968,-2343,2041,-33,25,-18
30093,-98437,17968,-2343,2042,-33,25,-18
30094,-98437,17968,-2343,2041,-33,24,-18
30096,-98437,17968,-2343,2031,-33,24,-18
30097,-98437,17968,-2343,2031,-33,24,-18
30099,-98437,17968,-2343,2037,-33,24,-18
30100,-98437,17968,-2343,2032,-33,24,-18
30102,-98437,17187,-2343,2033,-33,24,-18
30103,-98437,17187,-2343,2040,-33,24,-18
30104,-98437,17187,-2343,2038,-33,25,-18
30106,-98437,17187,-2343,2041,-33,25,-18
30107,-98437,17187,-2343,2043,-33,25,-18
30109,-98437,17187,-2343,2040,-33,24,-18
30110,-98437,17187,-2343,2041,-33,24,-18
30112,-99218,17968,-2343,2033,-33,24,-19
30113,-99218,17968,-2343,2031,-33,24,-19
30116,-99218,17968,-2343,2043,-33,24,-19
30117,-99218,17968,-2343,2051,-33,24,-19
30133,-98437,17968,-3125,2043,-32,24,-19
30135,-98437,17968,-3125,2036,-32,24,-19
30136,-98437,17968,-3125,2036,-32,24,-19
30138,-98437,17968,-3125,2041,-33,25,-19
30139,-98437,17968,-3125,2040,-33,25,-19
30141,-98437,17968,-3125,2031,-33,24,-19
30143,-99218,16406,-3906,2046,-33,24,-20
30144,-99218,16406,-3906,2035,-33,25,-20
30145,-99218,16406,-3906,2045,-33,25,-20
30147,-99218,16406,-3906,2043,-33,25,-20
30148,-99218,16406,-3906,2049,-33,25,-20
30150,-99218,16406,-3906,2041,-33,25,-20
30151,-99218,16406,-3906,2035,-33,25,-20
30153,-99218,17187,-3906,2038,-33,25,-20
30154,-99218,17187,-3906,2038,-33,25,-20
30156,-99218,17187,-3906,2037,-33,25,-20
30157,-99218,17187,-3906,2032,-33,25,-19
30159,-99218,17187,-3906,2036,-33,24,-20
30160,-99218,17187,-3906,2031,-33,24,-20
30162,-98437,17187,-3906,2035,-33,24,-20
30163,-98437,17187,-3906,2041,-33,24,-20
30165,-98437,17187,-3906,2036,-34,24,-20
30167,-98437,17187,-3906,2041,-34,23,-20
30168,-98437,17187,-3906,2041,-34,23,-20
30170,-98437,17187,-3906,2047,-34,23,-20
30171,-98437,17187,-3906,2038,-34,23,-20
30173,-99218,17187,-3125,2038,-34,23,-20
30174,-99218,17187,-3125,2040,-34,23,-20
30176,-99218,17187,-3125,2041,-34,23,-20
30177,-99218,17187,-3125,2043,-34,23,-20
30179,-99218,17187,-3125,2048,-34,22,-20
30180,-99218,17187,-3125,2042,-34,22,-20
30181,-99218,17187,-3125,2041,-34,22,-20
30183,-100000,16406,-3906,2042,-34,22,-20
30186,-100000,16406,-3906,2049,-34,22,-20
30188,-100000,16406,-3906,2042,-34,22,-20
30189,-100000,16406,-3906,2036,-34,22,-20
30191,-100000,16406,-3906,2037,-34,22,-20
30193,-98437,17187,-3125,2048,-35,22,-20
30195,-98437,17187,-3125,2042,-35,22,-20
30197,-98437,17187,-3125,2040,-35,22,-20
30199,-98437,17187,-3125,2041,-35,22,-20
30201,-98437,17187,-3125,2035,-35,22,-20
30203,-100000,17187,-4687,2051,-35,22,-20
30205,-100000,17187,-4687,2048,-35,22,-20
30207,-100000,17187,-4687,2037,-35,22,-20
30209,-100000,17187,-4687,2031,-36,22,-20
30211,-100000,17187,-4687,2031,-36,22,-20
30213,-100000,17968,-4687,2038,-36,22,-20
30215,-100000,17968,-4687,2031,-36,21,-20
30217,-100000,17968,-4687,2046,-36,21,-20
30219,-100000,17968,-4687,2042,-36,21,-20
30221,-100000,17968,-4687,2046,-37,21,-20
30223,-100000,17187,-4687,2038,-37,21,-20
30225,-100000,17187,-4687,2045,-37,21,-20
30227,-100000,17187,-4687,2037,-37,21,-20
30229,-100000,17187,-4687,2041,-37,21,-20
30231,-100000,17187,-4687,2040,-37,21,-20
30233,-100000,17187,-4687,2036,-37,21,-20
30235,-100000,17187,-4687,2041,-38,21,-20
30237,-100000,17187,-4687,2041,-38,21,-20
30239,-100000,17187,-4687,2038,-38,21,-20
30241,-100000,17187,-4687,2035,-38,21,-20
30243,-100000,17187,-4687,2036,-38,21,-20
30245,-100000,17187,-3906,2042,-38,21,-20
30247,-100000,17187,-3906,2041,-38,21,-20
30249,-100000,17187,-3906,2042,-38,21,-20
30251,-100000,17187,-3906,2040,-39,21,-20
30253,-100000,17187,-3906,2049,-39,21,-20
30255,-100000,17968,-3906,2046,-39,20,-20
30257,-100000,17968,-3906,2054,-39,20,-20
30259,-100000,17968,-3906,2045,-39,21,-20
30261,-100000,17968,-3906,2043,-39,21,-20
30263,-100000,17968,-3906,2043,-39,21,-20
30265,-100781,17187,-3125,2046,-39,20,-20
30267,-100781,17187,-3125,2041,-40,20,-20
30269,-100781,17187,-3125,2046,-40,21,-20
30271,-100781,17187,-3125,2040,-40,21,-20
30273,-100781,17187,-3125,2048,-40,21,-20
30275,-100781,17968,-5468,2042,-40,21,-20
30277,-100781,17968,-5468,2047,-40,21,-20
30279,-100781,17968,-5468,2043,-40,21,-20
30281,-100781,17968,-5468,2042,-41,21,-20
30283,-100781,17968,-5468,2041,-41,20,-20
30285,-100000,17187,-4687,2043,-41,20,-20
30287,-100000,17187,-4687,2037,-41,20,-20
30289,-100000,17187,-4687,2051,-41,21,-20
30291,-100000,17187,-4687,2046,-42,21,-21
30293,-100000,17187,-4687,2040,-42,21,-21
30295,-100000,17187,-3906,2040,-42,21,-21
30297,-100000,17187,-3906,2043,-42,20,-21
30299,-100000,17187,-3906,2036,-42,20,-21
30301,-100000,17187,-3906,2031,-42,20,-21
30303,-100000,17187,-3906,2046,-43,20,-21
30305,-100781,16406,-4687,2041,-43,20,-21
30307,-100781,16406,-4687,2046,-43,20,-21
30309,-100781,16406,-4687,2041,-43,20,-21
30311,-100781,16406,-4687,2041,-43,20,-21
30313,-100781,16406,-4687,2046,-44,20,-21
30315,-100781,17968,-5468,2033,-44,20,-20
30317,-100781,17968,-5468,2040,-44,20,-20
30319,-100781,17968,-5468,2036,-44,19,-20
30321,-100781,17968,-5468,2042,-45,19,-21
30341,-100781,16406,-5468,2038,-46,19,-21
30343,-100781,16406,-5468,2040,-47,19,-21
30345,-100781,16406,-3906,2037,-47,19,-21
30346,-100781,16406,-3906,2036,-47,19,-21
30348,-100781,16406,-3906,2045,-48,19,-21
30349,-100781,16406,-3906,2036,-48,19,-22
30351,-100781,16406,-3906,2033,-48,19,-22
30352,-100781,16406,-3906,2035,-48,19,-22
30354,-100781,16406,-3906,2046,-48,19,-22
30355,-100000,16406,-5468,2041,-48,19,-22
30357,-100000,16406,-5468,2048,-48,19,-22
30358,-100000,16406,-5468,2036,-48,19,-22
30359,-100000,16406,-5468,2045,-48,19,-22
30361,-100000,16406,-5468,2035,-49,19,-22
30362,-100000,16406,-5468,2041,-49,19,-22
30364,-100000,16406,-5468,2041,-49,19,-22
30365,-100000,17187,-5468,2038,-49,19,-22
30367,-100000,17187,-5468,2040,-49,19,-22
30368,-100000,17187,-5468,2051,-49,19,-22
30370,-100000,17187,-5468,2054,-49,19,-22
30371,-100000,17187,-5468,2049,-50,19,-22
30373,-100000,17187,-5468,2031,-50,18,-22
30374,-100000,17187,-5468,2037,-50,18,-22
30376,-100000,17187,-5468,2040,-50,18,-21
30377,-100000,17187,-5468,2041,-50,19,-21
30379,-100000,17187,-5468,2049,-51,19,-22
30380,-100000,17187,-5468,2045,-51,19,-22
30382,-100000,17187,-5468,2045,-51,18,-22
30383,-100000,17187,-5468,2033,-51,18,-22
30385,-101562,17187,-4687,2045,-51,18,-22
30386,-101562,17187,-4687,2042,-51,18,-22
30388,-101562,17187,-4687,2035,-51,18,-22
30389,-101562,17187,-4687,2056,-52,18,-22
30391,-101562,17187,-4687,2047,-52,18,-22
30392,-101562,17187,-4687,2038,-52,18,-22
30395,-102343,17968,-4687,2041,-52,18,-22
30397,-102343,17968,-4687,2046,-53,18,-23
30398,-102343,17968,-4687,2041,-53,18,-23
30400,-102343,17968,-4687,2042,-53,18,-23
30401,-102343,17968,-4687,2051,-53,18,-23
30403,-102343,17968,-4687,2043,-53,18,-23
30405,-100781,17187,-6250,2047,-53,18,-23
30407,-100781,17187,-6250,2045,-54,18,-23
30409,-100781,17187,-6250,2045,-54,18,-23
30411,-100781,17187,-6250,2042,-54,18,-23
30413,-100781,17187,-6250,2046,-54,18,-23
30415,-100781,17187,-5468,2037,-54,18,-23
30417,-100781,17187,-5468,2033,-54,18,-23
30419,-100781,17187,-5468,2040,-55,18,-23
30421,-100781,17187,-5468,2042,-55,17,-23
30423,-100781,17187,-5468,2035,-55,17,-23
30425,-100781,17187,-5468,2036,-55,17,-23
30427,-101562,17187,-5468,2041,-55,17,-23
30429,-101562,17187,-5468,2047,-56,17,-23
30431,-101562,17187,-5468,2040,-56,17,-23
30433,-101562,17187,-5468,2049,-56,17,-23
30435,-101562,17187,-5468,2046,-56,17,-23
30437,-101562,17187,-4687,2051,-56,17,-23
30439,-101562,17187,-4687,2041,-56,17,-23
30441,-101562,17187,-4687,2041,-57,17,-23
30443,-101562,17187,-4687,2041,-57,16,-23
30445,-101562,17187,-4687,2047,-57,16,-23
30447,-102343,17187,-3906,2045,-58,16,-23
30449,-102343,17187,-3906,2045,-58,16,-23
30451,-102343,17187,-3906,2045,-58,16,-23
30453,-102343,17187,-3906,2043,-58,17,-23
30455,-102343,17187,-3906,2051,-58,17,-23
30457,-100781,16406,-5468,2046,-59,17,-23
30459,-100781,16406,-5468,2048,-59,17,-23
30461,-100781,16406,-5468,2042,-59,17,-23
30463,-100781,16406,-5468,2041,-59,17,-23
30465,-100781,16406,-5468,2043,-60,17,-23
30467,-100781,16406,-4687,2045,-60,17,-23
30469,-100781,16406,-4687,2045,-60,16,-23
30471,-100781,16406,-4687,2045,-60,16,-23
30473,-100781,16406,-4687,2043,-60,16,-23
30475,-100781,16406,-4687,2041,-61,16,-23
30477,-101562,17187,-5468,2047,-61,16,-23
30479,-101562,17187,-5468,2047,-61,17,-23
30481,-101562,17187,-5468,2037,-61,17,-23
30483,-101562,17187,-5468,2038,-62,17,-23
30485,-101562,17187,-5468,2046,-62,17,-23
30487,-100781,17187,-5468,2038,-62,17,-23
30489,-100781,17187,-5468,2042,-62,17,-23
30491,-100781,17187,-5468,2042,-62,17,-23
30493,-100781,17187,-5468,2038,-63,17,-23
30495,-100781,17187,-5468,2048,-63,17,-23
30497,-100781,15625,-5468,2038,-63,17,-23
30499,-100781,15625,-5468,2038,-63,18,-23
30501,-100781,15625,-5468,2043,-64,18,-23
30503,-100781,15625,-5468,2045,-64,18,-24
30505,-100781,15625,-5468,2043,-64,18,-24
30507,-100781,15625,-2343,2040,-64,18,-24
30509,-100781,15625,-2343,2040,-64,18,-24
30511,-100781,15625,-2343,2046,-65,18,-24
30513,-100781,15625,-2343,2041,-65,18,-24
30515,-100781,15625,-2343,2035,-65,18,-24
30517,-100781,15625,-3125,2032,-65,18,-24
30519,-100781,15625,-3125,2035,-65,18,-24
30521,-100781,15625,-3125,2051,-65,18,-24
30523,-100781,15625,-3125,2041,-66,18,-24
30525,-100781,15625,-3125,2051,-66,18,-24
30527,-101562,16406,-3125,2047,-66,18,-24
30529,-101562,16406,-3125,2045,-66,18,-24
30531,-101562,16406,-3125,2043,-67,18,-24
30533,-101562,16406,-3125,2047,-67,18,-24
30535,-101562,16406,-3125,2038,-67,18,-24
30537,-100781,16406,-3125,2049,-67,18,-24
30539,-100781,16406,-3125,2031,-67,18,-24
30541,-100781,16406,-3125,2041,-68,18,-24
30543,-100781,16406,-3125,2049,-68,18,-24
30545,-100781,16406,-3125,2046,-68,18,-24
30547,-100781,15625,-3125,2047,-68,18,-24
30549,-100781,15625,-3125,2058,-68,18,-24
30551,-100781,15625,-3125,2046,-68,17,-24
30553,-100781,15625,-3125,2046,-68,17,-24
30555,-100781,15625,-3125,2042,-68,17,-25
30557,-100781,16406,-2343,2043,-69,17,-25
30559,-100781,16406,-2343,2038,-69,17,-25
30561,-100781,16406,-2343,2051,-69,17,-25
30563,-100781,16406,-2343,2041,-69,17,-25
30565,-100781,16406,-2343,2033,-69,17,-25
30567,-100781,15625,-3125,2042,-69,16,-25
30569,-100781,15625,-3125,2038,-69,16,-25
30571,-100781,15625,-3125,2043,-69,16,-24
30573,-100781,15625,-3125,2047,-69,16,-24
30575,-100781,15625,-3125,2048,-70,16,-24
30577,-100781,15625,-3125,2036,-70,16,-24
30579,-100781,15625,-3125,2047,-70,16,-24
30581,-100781,15625,-3125,2038,-70,16,-24
30583,-100781,15625,-3125,2051,-70,16,-24
30585,-100781,15625,-3125,2048,-70,16,-24
30587,-100781,14843,-2343,2046,-70,16,-24
30589,-100781,14843,-2343,2040,-70,16,-25
30591,-100781,14843,-2343,2036,-70,16,-25
30593,-100781,14843,-2343,2058,-71,16,-25
30595,-100781,14843,-2343,2048,-71,16,-25
30637,-100000,15625,-3125,2048,-73,18,-26
30638,-100781,15625,-1562,2038,-73,18,-26
30640,-100781,15625,-1562,2047,-73,17,-26
30642,-100781,15625,-1562,2040,-73,17,-26
30643,-100781,15625,-1562,2042,-73,17,-26
30645,-100781,15625,-1562,2037,-72,18,-26
30646,-100781,15625,-1562,2046,-72,18,-26
30648,-100000,14843,-1562,2037,-72,18,-26
30649,-100000,14843,-1562,2045,-72,18,-26
30651,-100000,14843,-1562,2041,-73,18,-26
30652,-100000,14843,-1562,2036,-73,18,-26
30654,-100000,14843,-1562,2040,-73,18,-26
30655,-100000,14843,-1562,2049,-73,18,-25
30657,-100000,14843,-1562,2040,-73,18,-25
30658,-100000,15625,-2343,2043,-73,18,-26
30660,-100000,15625,-2343,2046,-73,18,-26
30661,-100000,15625,-2343,2038,-73,18,-26
30663,-100000,15625,-2343,2042,-73,18,-26
30664,-100000,15625,-2343,2048,-73,17,-26
30666,-100000,15625,-2343,2043,-73,17,-26
30667,-100000,15625,-2343,2041,-73,17,-26
30669,-99218,16406,-781,2043,-73,17,-26
30670,-99218,16406,-781,2036,-73,17,-26
30672,-99218,16406,-781,2043,-73,17,-26
30673,-99218,16406,-781,2033,-73,17,-26
30675,-99218,16406,-781,2046,-73,17,-26
30676,-99218,16406,-781,2036,-73,17,-26
30678,-99218,16406,-781,2031,-73,17,-26
30679,-99218,16406,-781,2041,-73,17,-26
30681,-99218,16406,-781,2042,-73,17,-26
30682,-99218,16406,-781,2046,-73,17,-26
30684,-99218,16406,-781,2042,-73,17,-26
30685,-99218,16406,-781,2031,-73,17,-26
30686,-99218,16406,-781,2043,-73,17,-26
30688,-100000,17968,-2343,2045,-73,17,-26
30690,-100000,17968,-2343,2041,-73,17,-26
30692,-100000,17968,-2343,2042,-73,17,-26
30693,-100000,17968,-2343,2052,-73,17,-26
30695,-100000,17968,-2343,2051,-73,17,-26
30696,-100000,17968,-2343,2042,-73,16,-26
30698,-100000,17968,-2343,2049,-73,16,-26
30699,-99218,16406,-781,2038,-73,16,-26
30701,-99218,16406,-781,2043,-73,16,-26
30702,-99218,16406,-781,2036,-73,17,-26
30704,-99218,16406,-781,2035,-73,17,-26
30705,-99218,16406,-781,2037,-72,17,-26
30707,-99218,16406,-781,2046,-72,17,-26
30708,-99218,16406,-781,2054,-72,17,-26
30710,-99218,16406,-781,2038,-72,17,-26
30711,-99218,16406,-781,2045,-72,17,-26
30713,-99218,16406,-781,2045,-72,17,-25
30714,-99218,16406,-781,2032,-72,17,-25
30716,-99218,16406,-781,2043,-72,17,-25
30717,-99218,16406,-781,2042,-72,17,-25
30719,-98437,16406,-781,2047,-72,17,-25
30720,-98437,16406,-781,2041,-72,17,-25
30722,-98437,16406,-781,2048,-72,17,-25
30723,-98437,16406,-781,2041,-72,17,-25
30725,-98437,16406,-781,2051,-72,17,-25
30726,-98437,16406,-781,2041,-72,17,-25
30728,-98437,16406,-781,2032,-72,17,-25
30729,-98437,17187,0,2047,-72,17,-25
30730,-98437,17187,0,2035,-72,17,-25
30732,-98437,17187,0,2033,-72,17,-25
30733,-98437,17187,0,2049,-72,17,-25
30735,-98437,17187,0,2037,-72,17,-25
30736,-98437,17187,0,2041,-72,17,-25
30738,-98437,17187,0,2046,-72,17,-25
30739,-97656,17187,781,2037,-72,17,-25
30741,-97656,17187,781,2046,-72,17,-25
30743,-97656,17187,781,2032,-72,17,-25
30745,-97656,17187,781,2051,-72,17,-25
30785,-97656,16406,0,2040,-71,18,-24
30786,-97656,16406,0,2049,-71,18,-24
30788,-97656,16406,0,2031,-70,18,-24
30789,-97656,16406,-781,2037,-70,18,-24
30791,-97656,16406,-781,2037,-70,18,-24
30792,-97656,16406,-781,2042,-70,18,-24
30794,-97656,16406,-781,2047,-70,18,-24
30795,-97656,16406,-781,2041,-70,18,-24
30797,-97656,16406,-781,2041,-70,18,-24
30798,-97656,16406,-781,2036,-70,18,-24
30800,-96875,16406,0,2046,-69,18,-24
30801,-96875,16406,0,2043,-69,18,-24
30803,-96875,16406,0,2048,-69,18,-24
30804,-96875,16406,0,2031,-69,18,-23
30806,-96875,16406,0,2032,-69,18,-23
30807,-96875,16406,0,2038,-69,18,-23
30809,-96875,16406,0,2041,-69,18,-23
30810,-98437,17187,781,2035,-68,18,-23
30812,-98437,17187,781,2041,-68,18,-23
30813,-98437,17187,781,2033,-68,18,-23
30814,-98437,17187,781,2040,-68,18,-23
30816,-98437,17187,781,2053,-68,18,-23
30818,-98437,17187,781,2040,-67,18,-23
30819,-98437,17187,781,2036,-67,18,-23
30821,-96875,16406,0,2043,-67,18,-23
30822,-96875,16406,0,2049,-67,18,-23
30824,-96875,16406,0,2042,-67,18,-23
30825,-96875,16406,0,2041,-67,18,-23
30827,-96875,16406,0,2038,-67,17,-23
30828,-96875,16406,0,2036,-67,17,-23
30829,-96875,16406,0,2037,-67,17,-23
30831,-98437,17187,1562,2031,-67,17,-23
30832,-98437,17187,1562,2041,-66,18,-23
30834,-98437,17187,1562,2037,-66,18,-23
30835,-98437,17187,1562,2037,-66,18,-23
30837,-98437,17187,1562,2045,-66,17,-22
30838,-98437,17187,1562,2045,-66,17,-22
30840,-96875,18750,781,2051,-66,18,-22
30843,-96875,18750,781,2035,-66,18,-22
30845,-96875,18750,781,2043,-66,18,-22
30846,-96875,18750,781,2052,-65,18,-22
30848,-96875,18750,781,2046,-65,18,-22
30849,-96875,18750,781,2041,-65,18,-22
30851,-96875,16406,-2343,2047,-65,18,-22
30852,-96875,16406,-2343,2046,-65,18,-22
30854,-96875,16406,-2343,2056,-65,18,-22
30855,-96875,16406,-2343,2051,-64,18,-22
30856,-96875,16406,-2343,2045,-64,18,-22
30858,-96875,16406,-2343,2045,-64,18,-22
30859,-96875,16406,-2343,2040,-64,18,-22
30861,-96093,16406,1562,2046,-64,18,-22
30862,-96093,16406,1562,2038,-64,18,-22
30864,-96093,16406,1562,2047,-63,17,-22
30866,-96093,16406,1562,2051,-63,17,-22
30867,-96093,16406,1562,2048,-63,17,-22
30869,-96093,16406,1562,2042,-63,18,-22
30870,-96875,16406,-781,2041,-63,18,-22
30872,-96875,16406,-781,2036,-63,18,-22
30873,-96875,16406,-781,2036,-63,18,-22
30875,-96875,16406,-781,2040,-63,18,-22
30876,-96875,16406,-781,2042,-63,18,-22
30877,-96875,16406,-781,2041,-63,18,-22
30879,-96875,16406,-781,2041,-62,18,-22
30880,-96875,14843,781,2053,-62,18,-22
30882,-96875,14843,781,2035,-62,18,-22
30883,-96875,14843,781,2045,-62,18,-22
30885,-96875,14843,781,2042,-62,18,-22
30886,-96875,14843,781,2041,-62,18,-22
30888,-96875,14843,781,2033,-62,18,-22
30889,-96875,14843,781,2051,-62,18,-22
30891,-96093,16406,0,2051,-62,18,-21
30892,-96093,16406,0,2031,-61,18,-21
30894,-96093,16406,0,2045,-61,18,-21
30895,-96093,16406,0,2045,-61,18,-21
30897,-96093,16406,0,2041,-61,19,-21
30916,-96875,16406,0,2045,-59,20,-21
30918,-96875,16406,0,2052,-59,19,-21
30919,-96875,16406,0,2041,-59,19,-21
30921,-97656,17187,-781,2041,-58,19,-20
30922,-97656,17187,-781,2031,-58,19,-20
30924,-97656,17187,-781,2037,-58,19,-20
30925,-97656,17187,-781,2040,-58,19,-20
30927,-97656,17187,-781,2036,-58,19,-20
30928,-97656,17187,-781,2042,-58,19,-20
30930,-97656,17187,-781,2042,-58,19,-20
30931,-96093,16406,0,2046,-58,19,-20
30933,-96093,16406,0,2037,-58,19,-20
30934,-96093,16406,0,2033,-58,19,-20
30936,-96093,16406,0,2047,-57,19,-20
30937,-96093,16406,0,2041,-57,19,-20
30939,-96093,16406,0,2042,-57,19,-20
30940,-96093,16406,0,2033,-57,19,-20
30942,-96875,15625,-781,2035,-57,19,-20
30943,-96875,15625,-781,2040,-57,19,-20
30945,-96875,15625,-781,2037,-57,19,-20
30946,-96875,15625,-781,2048,-56,19,-20
30948,-96875,15625,-781,2040,-56,19,-20
30949,-96875,15625,-781,2040,-56,19,-19
30951,-96875,15625,-781,2043,-56,19,-19
30952,-97656,16406,-781,2045,-56,19,-19
30954,-97656,16406,-781,2038,-56,19,-19
30955,-97656,16406,-781,2035,-56,19,-19
30956,-97656,16406,-781,2048,-56,19,-19
30958,-97656,16406,-781,2040,-55,19,-19
30959,-97656,16406,-781,2035,-55,18,-19
30961,-97656,16406,-781,2035,-55,18,-19
30962,-96875,15625,0,2040,-55,18,-19
30964,-96875,15625,0,2048,-55,19,-19
30966,-96875,15625,0,2031,-55,19,-19
30967,-96875,15625,0,2041,-55,19,-19
30969,-96875,15625,0,2030,-55,19,-19
30970,-96875,15625,0,2047,-54,19,-19
30971,-96093,15625,781,2038,-54,19,-19
30974,-96093,15625,781,2036,-54,19,-19
30976,-96093,15625,781,2047,-54,19,-19
30978,-96093,15625,781,2033,-54,19,-19
30979,-96093,15625,781,2053,-54,19,-19
30981,-96093,15625,781,2047,-54,19,-19
30982,-96093,16406,0,2041,-53,19,-19
30984,-96093,16406,0,2038,-53,19,-19
30985,-96093,16406,0,2033,-53,19,-19
30987,-96093,16406,0,2036,-53,19,-19
30988,-96093,16406,0,2046,-53,20,-19
30989,-96093,16406,0,2035,-52,20,-19
30991,-96093,16406,0,2047,-52,20,-19
30993,-96093,15625,-1562,2046,-52,20,-19
30994,-96093,15625,-1562,2045,-52,20,-19
30996,-96093,15625,-1562,2037,-52,20,-19
30997,-96093,15625,-1562,2032,-52,20,-19
30999,-96093,15625,-1562,2036,-51,20,-19
31001,-96093,15625,-1562,2035,-51,20,-19
31003,-96093,16406,-781,2041,-51,20,-19
31005,-96093,16406,-781,2040,-51,20,-19
31007,-96093,16406,-781,2041,-51,20,-18
31009,-96093,16406,-781,2036,-51,20,-19
31011,-96093,16406,-781,2041,-50,21,-19
31013,-96875,15625,-781,2040,-50,21,-19
31015,-96875,15625,-781,2042,-50,21,-19
31017,-96875,15625,-781,2040,-50,21,-19
31019,-96875,15625,-781,2037,-50,21,-19
31021,-96875,15625,-781,2032,-49,21,-19
31023,-97656,16406,0,2041,-49,21,-19
31025,-97656,16406,0,2040,-49,21,-19
31027,-97656,16406,0,2049,-49,21,-19
31029,-97656,16406,0,2033,-49,21,-19
31031,-97656,16406,0,2041,-49,22,-19
31033,-97656,16406,-1562,2043,-48,22,-19
31035,-97656,16406,-1562,2040,-48,21,-19
31037,-97656,16406,-1562,2037,-48,22,-19
31039,-97656,16406,-1562,2038,-48,21,-19
31069,-97656,16406,-781,2043,-46,21,-19
31071,-97656,16406,-781,2041,-46,21,-19
31072,-97656,16406,-781,2036,-46,21,-19
31074,-97656,16406,-781,2038,-46,21,-19
31075,-97656,16406,-781,2041,-46,21,-19
31077,-97656,16406,-781,2038,-46,21,-19
31078,-97656,16406,-781,2041,-46,21,-19
31080,-97656,16406,-781,2041,-46,21,-19
31081,-97656,16406,-781,2043,-46,21,-18
31083,-98437,16406,-3125,2036,-46,21,-18
31084,-98437,16406,-3125,2041,-46,21,-18
31086,-98437,16406,-3125,2037,-46,21,-19
31087,-98437,16406,-3125,2041,-46,21,-19
31089,-98437,16406,-3125,2037,-45,21,-19
31090,-98437,16406,-3125,2043,-45,21,-19
31092,-98437,16406,-3125,2051,-45,21,-19
31093,-98437,15625,-781,2035,-45,21,-19
31095,-98437,15625,-781,2045,-45,21,-19
31096,-98437,15625,-781,2041,-45,21,-19
31098,-98437,15625,-781,2035,-45,21,-19
31099,-98437,15625,-781,2041,-45,21,-19
31101,-98437,15625,-781,2041,-45,21,-19
31102,-98437,15625,-781,2040,-45,21,-19
31104,-99218,16406,-781,2045,-45,21,-19
31105,-99218,16406,-781,2046,-45,21,-19
31107,-99218,16406,-781,2036,-45,21,-19
31108,-99218,16406,-781,2033,-45,21,-19
31110,-99218,16406,-781,2047,-45,21,-19
31111,-99218,16406,-781,2053,-45,21,-19
31113,-97656,15625,-2343,2043,-44,21,-19
31114,-97656,15625,-2343,2042,-44,21,-19
31116,-97656,15625,-2343,2032,-44,21,-19
31117,-97656,15625,-2343,2035,-44,21,-19
31119,-97656,15625,-2343,2043,-44,21,-19
31120,-97656,15625,-2343,2038,-44,21,-19
31122,-97656,15625,-2343,2043,-44,21,-19
31125,-98437,16406,-1562,2040,-44,21,-19
31127,-98437,16406,-1562,2037,-44,21,-19
31128,-98437,16406,-1562,2051,-44,21,-19
31130,-98437,16406,-1562,2046,-44,21,-19
31131,-98437,16406,-1562,2046,-44,21,-18
31133,-98437,16406,-1562,2047,-44,21,-18
31134,-99218,15625,-1562,2038,-44,21,-19
31136,-99218,15625,-1562,2041,-44,21,-19
31137,-99218,15625,-1562,2043,-44,21,-19
31139,-99218,15625,-1562,2038,-44,21,-19
31140,-99218,15625,-1562,2045,-44,22,-19
31142,-99218,15625,-1562,2041,-44,22,-19
31143,-98437,15625,-1562,2037,-44,22,-18
31145,-98437,15625,-1562,2042,-44,22,-18
31146,-98437,15625,-1562,2035,-44,22,-19
31148,-98437,15625,-1562,2038,-43,21,-18
31149,-98437,15625,-1562,2053,-43,21,-18
31151,-98437,15625,-1562,2035,-44,22,-18
31152,-98437,15625,-1562,2042,-44,22,-19
31154,-99218,16406,-2343,2045,-44,22,-19
31155,-99218,16406,-2343,2041,-44,22,-19
31157,-99218,16406,-2343,2037,-44,22,-19
31158,-99218,16406,-2343,2041,-44,22,-19
31160,-99218,16406,-2343,2056,-44,22,-19
31161,-99218,16406,-2343,2038,-44,22,-19
31163,-99218,16406,-2343,2051,-44,22,-19
31165,-100000,17968,-2343,2040,-44,22,-19
31167,-100000,17968,-2343,2038,-44,22,-19
31169,-100000,17968,-2343,2041,-44,22,-19
31171,-100000,17968,-2343,2041,-44,22,-19
31173,-100000,17968,-2343,2045,-44,22,-19
31175,-99218,14843,-3906,2046,-44,22,-19
31177,-99218,14843,-3906,2045,-44,23,-19
31179,-99218,14843,-3906,2045,-44,23,-19
31181,-99218,14843,-3906,2049,-44,23,-19
31183,-99218,14843,-3906,2041,-44,23,-19
31203,-98437,14843,-3125,2043,-43,23,-19
31204,-98437,14843,-2343,2043,-44,23,-19
31206,-98437,14843,-2343,2041,-44,23,-19
31207,-98437,14843,-2343,2035,-44,23,-19
31209,-98437,14843,-2343,2045,-44,22,-19
31210,-98437,14843,-2343,2042,-44,22,-19
31212,-98437,14843,-2343,2046,-44,22,-19
31213,-98437,14843,-2343,2051,-44,22,-19
31215,-99218,15625,-1562,2035,-44,22,-19
31216,-99218,15625,-1562,2046,-44,22,-19
31218,-99218,15625,-1562,2036,-44,22,-19
31219,-99218,15625,-1562,2042,-44,22,-19
31221,-99218,15625,-1562,2035,-44,22,-19
31222,-99218,15625,-1562,2031,-44,22,-19
31224,-99218,15625,-1562,2053,-44,22,-19
31225,-100000,15625,-5468,2041,-44,22,-19
31227,-100000,15625,-5468,2036,-44,22,-19
31228,-100000,15625,-5468,2042,-44,22,-19
31230,-100000,15625,-5468,2033,-44,22,-19
31231,-100000,15625,-5468,2040,-44,22,-19
31233,-100000,15625,-5468,2041,-44,22,-19
31234,-99218,14843,-3906,2037,-44,22,-19
31236,-99218,14843,-3906,2040,-44,22,-19
31237,-99218,14843,-3906,2049,-44,22,-19
31239,-99218,14843,-3906,2049,-44,22,-19
31240,-99218,14843,-3906,2045,-44,22,-19
31242,-99218,14843,-3906,2041,-44,22,-19
31243,-99218,14843,-3906,2033,-44,22,-19
31245,-99218,15625,-2343,2041,-44,22,-19
31246,-99218,15625,-2343,2049,-44,22,-19
31248,-99218,15625,-2343,2046,-44,22,-19
31249,-99218,15625,-2343,2051,-44,22,-19
31251,-99218,15625,-2343,2048,-44,22,-19
31252,-99218,15625,-2343,2042,-44,22,-19
31254,-99218,15625,-2343,2043,-44,22,-19
31255,-99218,15625,-2343,2046,-44,22,-19
31257,-99218,15625,-2343,2037,-44,22,-19
31259,-99218,15625,-2343,2042,-44,22,-19
31261,-99218,15625,-2343,2046,-44,22,-20
31263,-99218,15625,-2343,2047,-44,22,-20
31265,-100000,15625,-2343,2047,-44,21,-20
31267,-100000,15625,-2343,2043,-44,21,-20
31269,-100000,15625,-2343,2046,-45,21,-20
31271,-100000,15625,-2343,2038,-45,22,-20
31273,-100000,15625,-2343,2038,-45,22,-20
31275,-100000,15625,-3125,2046,-45,22,-20
31277,-100000,15625,-3125,2041,-45,22,-21
31279,-100000,15625,-3125,2047,-45,22,-20
31281,-100000,15625,-3125,2049,-45,22,-20
31283,-100000,15625,-3125,2053,-45,22,-20
31285,-100781,14843,-2343,2045,-45,22,-20
31287,-100781,14843,-2343,2041,-45,22,-20
31289,-100781,14843,-2343,2041,-46,22,-20
31291,-100781,14843,-2343,2032,-46,22,-20
31293,-100781,14843,-2343,2041,-46,22,-21
31295,-100781,14843,-2343,2035,-46,22,-21
31297,-99218,14843,-3906,2043,-46,22,-21
31299,-99218,14843,-3906,2033,-46,22,-21
31301,-99218,14843,-3906,2045,-46,22,-21
31303,-99218,14843,-3906,2048,-46,22,-21
31305,-99218,14843,-3906,2032,-46,22,-21
31307,-100000,16406,-4687,2040,-46,22,-21
31309,-100000,16406,-4687,2043,-46,22,-21
31311,-100000,16406,-4687,2040,-46,22,-21
31313,-100000,16406,-4687,2038,-47,22,-21
31315,-100000,16406,-4687,2038,-47,22,-21
31317,-100000,14843,-3125,2041,-47,22,-22
31319,-100000,14843,-3125,2043,-47,22,-22
31321,-100000,14843,-3125,2042,-47,22,-22
31323,-100000,14843,-3125,2047,-48,22,-22
31325,-100000,14843,-3125,2048,-48,22,-22
31368,-100000,14843,-3125,2048,-51,23,-23
31370,-100000,14843,-3125,2042,-51,23,-23
31371,-100000,14843,-3125,2027,-51,23,-23
31373,-100000,14843,-3125,2042,-51,23,-23
31374,-100000,14843,-3125,2033,-51,23,-23
31376,-100000,14843,-3125,2033,-51,23,-23
31377,-100781,14062,-3125,2032,-51,23,-23
31378,-100781,14062,-3125,2041,-51,23,-23
31380,-100781,14062,-3125,2038,-51,23,-23
31381,-100781,14062,-3125,2042,-51,23,-23
31383,-100781,14062,-3125,2041,-52,23,-23
31384,-100781,14062,-3125,2030,-52,23,-23
31386,-100781,14843,-3906,2047,-52,23,-23
31387,-100781,14843,-3906,2045,-52,23,-23
31389,-100781,14843,-3906,2041,-52,23,-23
31390,-100781,14843,-3906,2033,-52,23,-23
31392,-100781,14843,-3906,2037,-52,23,-23
31393,-100781,14843,-3906,2038,-52,23,-23
31395,-100781,14843,-3906,2042,-52,23,-23
31396,-100781,14843,-3906,2047,-53,23,-23
31398,-100781,14843,-3906,2042,-53,23,-24
31399,-100781,14843,-3906,2032,-53,23,-24
31401,-100781,14843,-3906,2041,-53,23,-23
31402,-100781,14843,-3906,2041,-53,23,-23
31404,-100781,14843,-3906,2045,-53,23,-23
31405,-100781,14843,-3906,2040,-53,24,-24
31407,-100781,15625,-3125,2030,-53,24,-24
31408,-100781,15625,-3125,2045,-53,24,-24
31410,-100781,15625,-3125,2035,-53,24,-24
31411,-100781,15625,-3125,2035,-54,24,-24
31413,-100781,15625,-3125,2031,-54,24,-24
31414,-100781,15625,-3125,2032,-54,24,-24
31416,-100781,15625,-3125,2036,-54,24,-24
31417,-100000,14843,-3906,2045,-54,24,-24
31419,-100000,14843,-3906,2046,-54,24,-24
31422,-100000,14843,-3906,2038,-55,24,-24
31424,-100000,14843,-3906,2048,-55,24,-24
31425,-100000,14843,-3906,2043,-55,24,-24
31427,-100000,14843,-3906,2033,-55,25,-24
31428,-100000,14843,-3906,2038,-55,25,-24
31430,-100000,14843,-3906,2046,-55,25,-24
31431,-100000,14843,-3906,2046,-55,25,-24
31433,-100000,14843,-3906,2038,-55,25,-24
31434,-100000,14843,-3906,2037,-55,25,-24
31436,-100000,14843,-3906,2036,-55,25,-24
31437,-100781,14062,-3125,2048,-55,25,-24
31439,-100781,14062,-3125,2035,-56,25,-24
31440,-100781,14062,-3125,2046,-56,25,-24
31442,-100781,14062,-3125,2040,-56,25,-24
31443,-100781,14062,-3125,2048,-56,25,-24
31445,-100781,14062,-3125,2036,-56,25,-25
31446,-100781,14062,-3125,2047,-56,25,-25
31448,-100000,16406,-3906,2037,-56,25,-25
31449,-100000,16406,-3906,2041,-56,25,-25
31451,-100000,16406,-3906,2032,-57,25,-25
31452,-100000,16406,-3906,2041,-57,25,-25
31454,-100000,16406,-3906,2038,-57,25,-25
31455,-100000,16406,-3906,2038,-57,25,-25
31457,-100000,16406,-3906,2049,-57,25,-25
31458,-100000,15625,-3125,2035,-57,25,-25
31459,-100000,15625,-3125,2038,-57,25,-25
31461,-100000,15625,-3125,2042,-57,25,-25
31462,-100000,15625,-3125,2040,-57,25,-25
31464,-100000,15625,-3125,2035,-57,25,-26
31466,-100000,15625,-3125,2043,-57,25,-26
31467,-100000,14843,-2343,2033,-58,25,-26
31469,-100000,14843,-2343,2041,-58,25,-26
31470,-100000,14843,-2343,2056,-58,25,-26
31472,-100000,14843,-2343,2038,-58,25,-26
31474,-100000,14843,-2343,2036,-58,25,-26
31496,-100000,15625,-3906,2037,-60,24,-26
31497,-99218,14843,-2343,2035,-60,24,-26
31499,-99218,14843,-2343,2032,-60,24,-26
31500,-99218,14843,-2343,2036,-60,24,-27
31502,-99218,14843,-2343,2045,-60,24,-27
31503,-99218,14843,-2343,2046,-60,24,-27
31505,-99218,14843,-2343,2045,-60,24,-27
31506,-99218,14843,-2343,2042,-60,24,-27
31508,-100000,14843,-3125,2043,-60,24,-27
31509,-100000,14843,-3125,2042,-60,24,-27
31511,-100000,14843,-3125,2042,-60,24,-27
31512,-100000,14843,-3125,2043,-61,24,-27
31514,-100000,14843,-3125,2041,-61,24,-27
31515,-100000,14843,-3125,2041,-61,25,-27
31517,-100000,14843,-3125,2032,-61,25,-27
31518,-100000,14843,-3125,2046,-61,25,-27
31520,-100000,14843,-3125,2045,-61,25,-27
31521,-100000,14843,-3125,2043,-61,25,-27
31523,-100000,14843,-3125,2052,-61,25,-27
31524,-100000,14843,-3125,2038,-62,25,-27
31526,-100000,14843,-3125,2046,-62,25,-27
31527,-100000,14843,-3125,2032,-62,25,-27
31529,-100000,15625,-3125,2033,-62,25,-27
31530,-100000,15625,-3125,2038,-62,25,-27
31532,-100000,15625,-3125,2049,-62,25,-27
31533,-100000,15625,-3125,2049,-62,25,-27
31535,-100000,15625,-3125,2041,-62,26,-27
31536,-100000,15625,-3125,2037,-62,26,-27
31538,-100781,14843,-3125,2051,-62,26,-27
31539,-100781,14843,-3125,2042,-62,26,-27
31541,-100781,14843,-3125,2041,-62,26,-27
31542,-100781,14843,-3125,2040,-62,26,-27
31544,-100781,14843,-3125,2048,-63,26,-27
31545,-100781,14843,-3125,2045,-63,26,-27
31547,-100781,14843,-3125,2036,-63,26,-27
31549,-100000,15625,-3906,2038,-63,26,-27
31550,-100000,15625,-3906,2052,-63,26,-27
31552,-100000,15625,-3906,2045,-63,26,-27
31553,-100000,15625,-3906,2045,-63,26,-27
31555,-100000,15625,-3906,2041,-64,26,-27
31556,-100000,15625,-3906,2043,-64,26,-27
31558,-100000,15625,-3906,2047,-64,26,-27
31559,-100000,15625,-1562,2052,-64,26,-27
31561,-100000,15625,-1562,2041,-64,26,-27
31562,-100000,15625,-1562,2037,-64,26,-27
31564,-100000,15625,-1562,2043,-64,26,-27
31565,-100000,15625,-1562,2035,-65,26,-27
31567,-100000,15625,-1562,2042,-65,26,-27
31568,-100781,15625,-3125,2041,-65,26,-27
31570,-100781,15625,-3125,2032,-65,26,-27
31571,-100781,15625,-3125,2041,-65,26,-28
31573,-100781,15625,-3125,2035,-65,26,-28
31574,-100781,15625,-3125,2048,-65,26,-28
31576,-100781,15625,-3125,2038,-65,26,-28
31577,-100781,15625,-3125,2031,-65,26,-28
31579,-100781,16406,-2343,2040,-66,26,-28
31580,-100781,16406,-2343,2041,-66,26,-28
31582,-100781,16406,-2343,2040,-66,26,-28
31583,-100781,16406,-2343,2042,-66,27,-27
31585,-100781,16406,-2343,2037,-66,26,-28
31587,-100781,16406,-2343,2041,-66,26,-28
31589,-99218,15625,-3125,2040,-66,26,-28
31591,-99218,15625,-3125,2045,-66,27,-28
31593,-99218,15625,-3125,2036,-66,27,-28
31595,-99218,15625,-3125,2040,-66,26,-28
31597,-99218,15625,-3125,2043,-66,27,-27
31599,-100000,15625,-2343,2051,-67,27,-27
31601,-100000,15625,-2343,2049,-67,27,-27
31603,-100000,15625,-2343,2035,-67,26,-28
31605,-100000,15625,-2343,2037,-67,26,-28
31627,-100000,14843,-2343,2054,-68,26,-28
31629,-100000,14843,-2343,2048,-68,26,-28
31630,-100000,15625,-3125,2036,-68,26,-28
31632,-100000,15625,-3125,2045,-68,26,-28
31633,-100000,15625,-3125,2040,-68,26,-28
31634,-100000,15625,-3125,2038,-68,26,-28
31636,-100000,15625,-3125,2045,-68,26,-28
31637,-100000,15625,-3125,2040,-68,26,-28
31639,-99218,15625,-3125,2045,-68,26,-28
31641,-99218,15625,-3125,2031,-68,27,-28
31642,-99218,15625,-3125,2037,-68,27,-28
31644,-99218,15625,-3125,2049,-68,27,-28
31645,-99218,15625,-3125,2046,-68,27,-28
31647,-99218,15625,-3125,2051,-68,27,-28
31648,-99218,15625,-3125,2042,-68,27,-28
31650,-99218,15625,-3906,2046,-68,27,-28
31651,-99218,15625,-3906,2051,-69,27,-28
31652,-99218,15625,-3906,2040,-69,27,-28
31654,-99218,15625,-3906,2046,-69,27,-28
31655,-99218,15625,-3906,2051,-69,27,-28
31657,-99218,15625,-3906,2046,-69,27,-28
31658,-99218,15625,-3906,2045,-69,27,-28
31660,-100000,16406,-3125,2041,-69,27,-28
31661,-100000,16406,-3125,2041,-69,27,-29
31663,-100000,16406,-3125,2048,-69,27,-28
31664,-100000,16406,-3125,2043,-69,27,-28
31666,-100000,16406,-3125,2041,-69,27,-28
31668,-100000,16406,-3125,2032,-69,27,-29
31669,-98437,15625,-1562,2041,-69,27,-29
31671,-98437,15625,-1562,2041,-69,27,-29
31672,-98437,15625,-1562,2051,-69,27,-29
31674,-98437,15625,-1562,2041,-69,27,-29
31675,-98437,15625,-1562,2048,-69,27,-28
31677,-98437,15625,-1562,2046,-69,27,-28
31678,-98437,15625,-1562,2037,-69,27,-28
31680,-99218,15625,-1562,2041,-69,27,-28
31682,-99218,15625,-1562,2051,-69,27,-28
31684,-99218,15625,-1562,2040,-69,27,-28
31686,-99218,15625,-1562,2047,-69,27,-28
31687,-99218,15625,-1562,2053,-69,27,-28
31689,-99218,15625,-1562,2036,-69,27,-28
31690,-99218,14843,-781,2042,-69,27,-28
31692,-99218,14843,-781,2046,-69,27,-29
31693,-99218,14843,-781,2047,-69,27,-29
31695,-99218,14843,-781,2038,-69,27,-28
31697,-99218,14843,-781,2047,-69,27,-28
31699,-99218,14843,-781,2037,-69,27,-29
31701,-98437,15625,-781,2051,-69,27,-29
31703,-98437,15625,-781,2045,-68,27,-29
31705,-98437,15625,-781,2035,-68,27,-29
31707,-98437,15625,-781,2045,-68,27,-29
31709,-98437,15625,-781,2046,-69,27,-28
31711,-99218,16406,-2343,2042,-69,27,-28
31713,-99218,16406,-2343,2051,-69,27,-28
31715,-99218,16406,-2343,2032,-69,28,-29
31717,-99218,16406,-2343,2035,-69,28,-29
31719,-99218,16406,-2343,2038,-69,28,-28
31721,-98437,14843,-1562,2041,-68,28,-28
31723,-98437,14843,-1562,2040,-68,28,-28
31725,-98437,14843,-1562,2041,-68,28,-28
31727,-98437,14843,-1562,2046,-69,28,-28
31729,-98437,14843,-1562,2051,-69,28,-28
31731,-98437,14843,781,2038,-69,28,-28
31733,-98437,14843,781,2033,-69,28,-28
31735,-98437,14843,781,2042,-68,28,-28
31737,-98437,14843,781,2051,-68,28,-28
31739,-98437,14843,781,2041,-68,28,-28
31741,-99218,14843,-781,2048,-68,28,-28
31743,-99218,14843,-781,2042,-69,28,-28
31745,-99218,14843,-781,2031,-69,29,-28
31747,-99218,14843,-781,2040,-69,29,-28
31749,-99218,14843,-781,2033,-69,29,-28
31751,-98437,15625,-781,2045,-69,29,-28
31753,-98437,15625,-781,2043,-69,29,-28
31755,-98437,15625,-781,2041,-68,29,-28
31757,-98437,15625,-781,2046,-68,29,-28
31759,-98437,15625,-781,2042,-68,29,-28
31761,-99218,15625,0,2045,-68,29,-28
31763,-99218,15625,0,2042,-68,29,-28
31765,-99218,15625,0,2042,-68,29,-28
31767,-99218,15625,0,2041,-68,29,-28
31769,-99218,15625,0,2037,-68,29,-28
31771,-98437,15625,-781,2052,-68,29,-28
31773,-98437,15625,-781,2032,-68,29,-28
31775,-98437,15625,-781,2042,-67,28,-28
31777,-98437,15625,-781,2045,-67,28,-28
31779,-98437,15625,-781,2040,-67,29,-28
31781,-98437,14843,0,2041,-67,29,-28
31783,-98437,14843,0,2041,-67,29,-28
31785,-98437,14843,0,2038,-67,29,-28
31787,-98437,14843,0,2041,-67,29,-28
31789,-98437,14843,0,2040,-67,29,-28
31791,-98437,15625,-1562,2042,-67,29,-28
31793,-98437,15625,-1562,2045,-67,29,-28
31795,-98437,15625,-1562,2043,-67,29,-28
31797,-98437,15625,-1562,2037,-67,29,-28
31799,-98437,15625,-1562,2047,-67,30,-28
31801,-97656,14843,0,2040,-66,29,-28
31803,-97656,14843,0,2037,-66,30,-28
31805,-97656,14843,0,2035,-66,30,-28
31807,-97656,14843,0,2045,-66,29,-28
31809,-97656,14843,0,2043,-66,30,-28
31811,-98437,15625,-781,2037,-66,30,-28
31813,-98437,15625,-781,2043,-66,30,-28
31815,-98437,15625,-781,2041,-66,30,-28
31817,-98437,15625,-781,2037,-65,30,-28
31819,-98437,15625,-781,2036,-65,30,-28
31821,-97656,15625,0,2045,-65,30,-28
31823,-97656,15625,0,2051,-65,30,-28
31825,-97656,15625,0,2052,-65,30,-28
31827,-97656,15625,0,2038,-65,30,-28
31829,-97656,15625,0,2051,-64,30,-28
31831,-97656,15625,0,2035,-64,30,-28
31833,-98437,15625,781,2058,-64,30,-28
31835,-98437,15625,781,2046,-64,30,-28
31837,-98437,15625,781,2042,-64,30,-28
31839,-98437,15625,781,2045,-64,30,-28
31841,-98437,15625,781,2035,-64,30,-28
31843,-97656,14062,781,2040,-64,30,-28
31845,-97656,14062,781,2036,-64,30,-28
31847,-97656,14062,781,2037,-64,31,-28
31849,-97656,14062,781,2045,-64,31,-28
31851,-97656,14062,781,2046,-64,31,-28
31853,-97656,14843,-781,2042,-63,31,-28
31855,-97656,14843,-781,2041,-63,31,-28
31857,-97656,14843,-781,2033,-63,30,-28
31859,-97656,14843,-781,2047,-63,30,-28
31861,-97656,14843,-781,2043,-63,31,-28
31863,-97656,14062,781,2036,-63,30,-28
31865,-97656,14062,781,2046,-63,30,-28
31867,-97656,14062,781,2032,-63,30,-28
31869,-97656,14062,781,2049,-63,30,-28
31871,-97656,14062,781,2035,-62,30,-28
31873,-98437,15625,781,2045,-62,30,-28
31875,-98437,15625,781,2046,-62,30,-28
31877,-98437,15625,781,2043,-62,30,-28
31879,-98437,15625,781,2049,-62,30,-28
31881,-98437,15625,781,2042,-62,30,-28
31883,-98437,15625,781,2031,-62,30,-28
31885,-98437,15625,781,2046,-62,30,-29
31887,-98437,15625,781,2043,-62,31,-29
31889,-98437,15625,781,2040,-61,31,-28
31891,-98437,15625,781,2038,-61,30,-28
31893,-97656,14843,781,2042,-61,30,-28
31895,-97656,14843,781,2049,-61,31,-28
31897,-97656,14843,781,2047,-61,30,-28
31899,-97656,14843,781,2042,-61,31,-28
31901,-97656,14843,781,2041,-60,31,-28
31903,-98437,16406,-781,2045,-60,31,-28
31905,-98437,16406,-781,2041,-60,31,-28
31907,-98437,16406,-781,2042,-60,31,-28
31909,-98437,16406,-781,2033,-60,31,-28
31911,-98437,16406,-781,2042,-60,31,-28
31913,-99218,16406,-1562,2038,-60,31,-28
31915,-99218,16406,-1562,2032,-60,31,-28
31917,-99218,16406,-1562,2032,-59,31,-28
31919,-99218,16406,-1562,2041,-59,31,-28
31921,-99218,16406,-1562,2048,-59,31,-28
31923,-96875,15625,-781,2049,-59,31,-28
31925,-96875,15625,-781,2045,-59,31,-28
31927,-96875,15625,-781,2042,-59,31,-28
31929,-96875,15625,-781,2032,-59,31,-28
31931,-96875,15625,-781,2041,-58,31,-28
31933,-97656,14843,781,2036,-58,31,-28
31935,-97656,14843,781,2038,-58,31,-29
31937,-97656,14843,781,2045,-58,31,-29
31939,-97656,14843,781,2043,-58,31,-29
31941,-97656,14843,781,2033,-58,31,-29
31943,-97656,14062,0,2047,-58,32,-29
31945,-97656,14062,0,2038,-57,32,-29
31947,-97656,14062,0,2035,-57,32,-29
31949,-97656,14062,0,2040,-57,32,-29
31951,-97656,14062,0,2049,-57,32,-29
31953,-97656,16406,0,2041,-57,32,-29
31955,-97656,16406,0,2046,-56,32,-28
31957,-97656,16406,0,2041,-56,32,-29
31959,-97656,16406,0,2046,-56,32,-29
31961,-97656,16406,0,2042,-56,32,-29
31963,-97656,15625,0,2036,-56,32,-29
31965,-97656,15625,0,2040,-56,32,-29
31967,-97656,15625,0,2047,-56,32,-28
31969,-97656,15625,0,2041,-56,32,-28
31971,-97656,15625,0,2040,-56,32,-28
31973,-97656,14062,0,2048,-56,32,-28
31975,-97656,14062,0,2046,-56,32,-28
31977,-97656,14062,0,2045,-55,32,-28
31979,-97656,14062,0,2042,-55,32,-28
31981,-97656,14062,0,2049,-55,32,-28
31983,-97656,14843,-781,2051,-55,32,-28
31985,-97656,14843,-781,2038,-55,32,-28
31987,-97656,14843,-781,2040,-55,32,-28
31989,-97656,14843,-781,2046,-55,32,-28
31991,-97656,14843,-781,2041,-54,32,-28
31993,-97656,14843,0,2031,-54,33,-28
31995,-97656,14843,0,2041,-54,33,-28
31997,-97656,14843,0,2036,-54,33,-28
31999,-97656,14843,0,2041,-54,33,-28
32001,-97656,14843,0,2041,-54,33,-28
32003,-97656,14843,0,2056,-54,33,-28
32005,-98437,15625,-781,2037,-53,33,-28
32007,-98437,15625,-781,2049,-53,33,-28
32009,-98437,15625,-781,2043,-53,33,-28
32011,-98437,15625,-781,2049,-53,33,-28
32013,-98437,15625,-781,2036,-53,32,-28
32015,-98437,15625,0,2035,-53,32,-28
32017,-98437,15625,0,2046,-53,32,-28
32019,-98437,15625,0,2049,-53,32,-28
32021,-98437,15625,0,2045,-52,32,-28
32023,-98437,15625,0,2037,-52,33,-28
32025,-98437,15625,-781,2042,-52,33,-28
32027,-98437,15625,-781,2045,-52,33,-28
32029,-98437,15625,-781,2037,-52,33,-28
32031,-98437,15625,-781,2036,-51,33,-29
32033,-98437,15625,-781,2051,-51,33,-29
32035,-97656,14843,0,2033,-51,33,-28
32037,-97656,14843,0,2051,-51,33,-28
32039,-97656,14843,0,2038,-51,33,-29
32041,-97656,14843,0,2049,-51,33,-29
32043,-97656,14843,0,2042,-51,33,-29
32045,-97656,14843,781,2052,-50,33,-29
32047,-97656,14843,781,2048,-50,33,-29
32049,-97656,14843,781,2046,-50,33,-29
32051,-97656,14843,781,2053,-50,33,-29
32053,-97656,14843,781,2049,-50,34,-29
32055,-97656,15625,781,2043,-50,33,-29
32057,-97656,15625,781,2047,-50,34,-29
32059,-97656,15625,781,2037,-49,34,-29
32061,-97656,15625,781,2031,-49,34,-29
32063,-97656,15625,781,2043,-49,34,-29
32065,-96875,14843,0,2038,-49,33,-29
32067,-96875,14843,0,2033,-49,33,-29
32069,-96875,14843,0,2033,-49,34,-29
32071,-96875,14843,0,2036,-49,34,-29
32073,-96875,14843,0,2036,-48,34,-29
32075,-98437,16406,-781,2041,-48,34,-29
32077,-98437,16406,-781,2041,-48,34,-29
32079,-98437,16406,-781,2049,-48,34,-29
32081,-98437,16406,-781,2041,-48,34,-29
32083,-98437,16406,-781,2036,-48,34,-29
32085,-97656,14843,-1562,2037,-48,34,-29
32087,-97656,14843,-1562,2037,-48,34,-29
32089,-97656,14843,-1562,2045,-48,34,-29
32091,-97656,14843,-1562,2048,-48,34,-29
32093,-97656,14843,-1562,2036,-47,34,-29
32095,-99218,15625,0,2048,-47,34,-29
32097,-99218,15625,0,2043,-47,34,-29
32099,-99218,15625,0,2032,-47,34,-29
32101,-99218,15625,0,2031,-47,34,-29
32103,-99218,15625,0,2054,-47,34,-29
32105,-97656,15625,0,2037,-47,34,-29
32107,-97656,15625,0,2042,-46,34,-29
32109,-97656,15625,0,2045,-46,34,-29
32111,-97656,15625,0,2041,-46,34,-29
32113,-97656,15625,0,2033,-46,34,-29
32115,-97656,14843,-1562,2043,-46,34,-29
32146,-99218,14843,-781,2048,-44,34,-31
32148,-99218,14843,-781,2040,-44,34,-30
32149,-99218,14843,-781,2041,-44,34,-30
32151,-99218,14843,-781,2032,-44,34,-30
32152,-99218,14843,-781,2041,-44,34,-30
32154,-99218,14843,-781,2042,-44,34,-30
32155,-98437,15625,-781,2041,-44,34,-30
32157,-98437,15625,-781,2035,-44,34,-31
32158,-98437,15625,-781,2036,-44,34,-31
32160,-98437,15625,-781,2045,-44,34,-31
32161,-98437,15625,-781,2046,-43,34,-31
32163,-98437,15625,-781,2031,-43,34,-31
32164,-98437,15625,-781,2045,-43,34,-31
32166,-98437,16406,0,2042,-43,34,-31
32167,-98437,16406,0,2030,-43,34,-31
32169,-98437,16406,0,2033,-43,33,-31
32170,-98437,16406,0,2042,-43,33,-31
32172,-98437,16406,0,2041,-43,33,-31
32173,-98437,16406,0,2046,-43,34,-31
32175,-98437,16406,0,2040,-43,34,-31
32176,-97656,14843,-781,2043,-43,34,-31
32178,-97656,14843,-781,2041,-42,34,-31
32179,-97656,14843,-781,2038,-42,33,-31
32180,-97656,14843,-781,2040,-42,33,-31
32182,-97656,14843,-781,2041,-42,33,-31
32183,-97656,14843,-781,2042,-42,33,-31
32185,-98437,15625,-1562,2037,-42,33,-31
32186,-98437,15625,-1562,2033,-42,33,-31
32188,-98437,15625,-1562,2036,-42,33,-31
32189,-98437,15625,-1562,2046,-42,33,-31
32191,-98437,15625,-1562,2048,-42,33,-31
32193,-98437,15625,-1562,2047,-42,33,-31
32194,-98437,15625,-1562,2041,-42,33,-31
32196,-99218,15625,-1562,2057,-42,33,-31
32197,-99218,15625,-1562,2042,-42,33,-31
32199,-99218,15625,-1562,2035,-42,33,-31
32202,-99218,15625,-1562,2052,-42,33,-31
32203,-99218,15625,-1562,2037,-41,34,-31
32205,-99218,15625,-1562,2037,-41,34,-31
32206,-98437,14843,0,2047,-41,34,-31
32208,-98437,14843,0,2048,-41,33,-32
32209,-98437,14843,0,2041,-41,33,-32
32211,-98437,14843,0,2049,-41,33,-32
32212,-98437,14843,0,2041,-41,33,-32
32214,-98437,14843,0,2040,-41,34,-32
32215,-98437,14843,0,2045,-40,34,-32
32217,-98437,14062,-781,2048,-40,34,-32
32218,-98437,14062,-781,2045,-40,34,-32
32220,-98437,14062,-781,2049,-40,34,-32
32221,-98437,14062,-781,2045,-40,34,-32
32223,-98437,14062,-781,2046,-40,34,-32
32224,-98437,14062,-781,2038,-40,34,-32
32226,-99218,14843,-1562,2036,-40,34,-32
32227,-99218,14843,-1562,2041,-40,34,-32
32228,-99218,14843,-1562,2040,-40,34,-32
32230,-99218,14843,-1562,2053,-40,34,-32
32231,-99218,14843,-1562,2041,-40,34,-32
32233,-99218,14843,-1562,2043,-40,34,-32
32234,-99218,14843,-1562,2038,-40,34,-32
32236,-98437,16406,-781,2040,-40,35,-32
32237,-98437,16406,-781,2046,-40,34,-32
32239,-98437,16406,-781,2043,-40,34,-32
32241,-98437,16406,-781,2047,-40,34,-32
32243,-98437,16406,-781,2041,-40,34,-32
32245,-98437,16406,-781,2048,-40,34,-32
32247,-99218,16406,-1562,2051,-40,34,-32
32249,-99218,16406,-1562,2035,-40,34,-32
32251,-99218,16406,-1562,2032,-40,34,-32
32253,-99218,16406,-1562,2042,-40,34,-32
32255,-99218,16406,-1562,2041,-40,33,-32
32257,-97656,15625,0,2032,-40,34,-32
32259,-97656,15625,0,2032,-40,33,-33
32261,-97656,15625,0,2031,-40,33,-33
32263,-97656,15625,0,2041,-40,33,-33
32283,-99218,15625,-1562,2038,-39,32,-33
32285,-99218,15625,-1562,2046,-39,32,-33
32286,-99218,15625,-781,2038,-39,32,-33
32288,-99218,15625,-781,2048,-39,32,-33
32289,-99218,15625,-781,2041,-39,32,-33
32291,-99218,15625,-781,2048,-39,32,-33
32292,-99218,15625,-781,2040,-39,32,-33
32294,-99218,15625,-781,2036,-38,32,-33
32295,-99218,15625,-781,2035,-38,32,-33
32297,-99218,16406,-1562,2043,-38,32,-33
32298,-99218,16406,-1562,2041,-38,32,-33
32300,-99218,16406,-1562,2049,-38,32,-33
32301,-99218,16406,-1562,2036,-38,32,-33
32303,-99218,16406,-1562,2041,-38,32,-33
32304,-99218,16406,-1562,2041,-38,32,-33
32306,-99218,16406,-1562,2031,-38,32,-33
32307,-99218,16406,-2343,2038,-38,31,-33
32309,-99218,16406,-2343,2047,-38,31,-33
32310,-99218,16406,-2343,2031,-38,31,-33
32312,-99218,16406,-2343,2048,-38,31,-33
32313,-99218,16406,-2343,2040,-38,31,-33
32315,-99218,16406,-2343,2032,-38,31,-33
32316,-99218,15625,-2343,2038,-38,31,-33
32318,-99218,15625,-2343,2046,-38,31,-33
32319,-99218,15625,-2343,2038,-38,31,-34
32321,-99218,15625,-2343,2042,-38,31,-34
32322,-99218,15625,-2343,2049,-38,31,-34
32324,-99218,15625,-2343,2040,-38,31,-34
32325,-99218,15625,-2343,2043,-38,31,-34
32327,-99218,14843,-2343,2043,-38,31,-34
32328,-99218,14843,-2343,2043,-38,31,-34
32330,-99218,14843,-2343,2037,-38,31,-34
32331,-99218,14843,-2343,2045,-38,31,-34
32333,-99218,14843,-2343,2030,-38,31,-34
32334,-99218,14843,-2343,2047,-38,31,-34
32337,-99218,15625,-2343,2046,-38,31,-34
32339,-99218,15625,-2343,2041,-38,31,-34
32340,-99218,15625,-2343,2037,-38,31,-35
32342,-99218,15625,-2343,2037,-38,31,-35
32343,-99218,15625,-2343,2051,-38,31,-35
32345,-99218,15625,-2343,2047,-38,31,-35
32347,-99218,15625,-1562,2051,-38,31,-35
32349,-99218,15625,-1562,2056,-38,31,-35
32351,-99218,15625,-1562,2046,-38,31,-35
32353,-99218,15625,-1562,2037,-38,31,-35
32355,-99218,15625,-1562,2046,-38,30,-35
32357,-99218,15625,-1562,2049,-38,30,-35
32359,-99218,16406,-3125,2049,-38,31,-35
32361,-99218,16406,-3125,2031,-38,31,-35
32363,-99218,16406,-3125,2037,-38,31,-35
32365,-99218,16406,-3125,2036,-38,31,-35
32367,-99218,16406,-3125,2033,-38,31,-35
32369,-99218,16406,-3125,2038,-38,31,-35
32371,-99218,16406,-3125,2032,-38,31,-35
32373,-99218,16406,-3125,2041,-38,31,-35
32375,-99218,16406,-3125,2041,-38,31,-35
32377,-99218,16406,-3125,2051,-38,31,-35
32379,-100000,16406,-3125,2035,-38,31,-35
32381,-100000,16406,-3125,2035,-38,31,-36
32383,-100000,16406,-3125,2043,-39,31,-36
32385,-100000,16406,-3125,2040,-39,31,-36
32387,-100000,16406,-3125,2037,-39,30,-36
32389,-100781,15625,-3125,2045,-39,30,-36
32391,-100781,15625,-3125,2059,-39,30,-36
32393,-100781,15625,-3125,2045,-38,30,-36
32395,-100781,15625,-3125,2038,-38,30,-36
32397,-100781,15625,-3125,2036,-38,30,-36
32399,-100781,16406,-3125,2051,-38,30,-37
32401,-100781,16406,-3125,2041,-38,30,-36
32403,-100781,16406,-3125,2051,-38,29,-36
32405,-100781,16406,-3125,2035,-38,29,-36
32421,-100000,15625,-3906,2043,-38,29,-37
32423,-100000,15625,-3906,2025,-38,29,-37
32424,-100000,15625,-3906,2043,-39,28,-37
32426,-100000,15625,-3906,2047,-39,29,-37
32427,-100000,15625,-3906,2037,-39,29,-37
32429,-100781,17187,-4687,2041,-39,28,-37
32430,-100781,17187,-4687,2043,-39,28,-37
32432,-100781,17187,-4687,2040,-39,28,-37
32433,-100781,17187,-4687,2047,-39,28,-37
32435,-100781,17187,-4687,2041,-39,28,-37
32436,-100781,17187,-4687,2036,-39,28,-37
32438,-100781,17187,-4687,2040,-39,28,-37
32439,-99218,15625,-3906,2033,-39,28,-37
32441,-99218,15625,-3906,2037,-39,28,-36
32442,-99218,15625,-3906,2031,-40,28,-37
32444,-99218,15625,-3906,2037,-40,28,-37
32445,-99218,15625,-3906,2040,-40,28,-37
32447,-99218,15625,-3906,2041,-40,28,-37
32448,-100000,15625,-3906,2038,-40,28,-37
32450,-100000,15625,-3906,2038,-40,28,-37
32451,-100000,15625,-3906,2051,-40,28,-37
32453,-100000,15625,-3906,2043,-40,28,-37
32454,-100000,15625,-3906,2033,-40,28,-37
32456,-100000,15625,-3906,2041,-40,28,-37
32457,-100000,15625,-3906,2049,-40,28,-37
32459,-100000,16406,-3906,2045,-40,28,-37
32460,-100000,16406,-3906,2042,-40,28,-37
32462,-100000,16406,-3906,2040,-40,28,-37
32463,-100000,16406,-3906,2043,-40,28,-37
32465,-100000,16406,-3906,2046,-40,28,-37
32467,-100000,16406,-3906,2031,-40,28,-38
32469,-100781,15625,-4687,2041,-40,28,-38
32471,-100781,15625,-4687,2045,-41,28,-37
32473,-100781,15625,-4687,2051,-41,28,-38
32475,-100781,15625,-4687,2042,-41,28,-38
32477,-100781,15625,-4687,2043,-41,28,-37
32479,-100781,14843,-3906,2051,-41,28,-38
32481,-100781,14843,-3906,2038,-41,28,-38
32483,-100781,14843,-3906,2038,-41,28,-38
32485,-100781,14843,-3906,2051,-42,28,-38
32487,-100781,14843,-3906,2038,-42,28,-38
32489,-100000,14843,-3125,2051,-42,28,-38
32491,-100000,14843,-3125,2038,-42,28,-38
32493,-100000,14843,-3125,2043,-42,28,-38
32495,-100000,14843,-3125,2040,-42,27,-38
32497,-100000,14843,-3125,2043,-42,28,-38
32499,-100781,15625,-3906,2046,-42,28,-38
32501,-100781,15625,-3906,2032,-42,28,-38
32503,-100781,15625,-3906,2047,-43,28,-38
32505,-100781,15625,-3906,2043,-43,27,-38
32507,-100781,15625,-3906,2038,-43,27,-38
32509,-101562,14843,-3906,2035,-43,28,-38
32511,-101562,14843,-3906,2042,-43,27,-38
32513,-101562,14843,-3906,2041,-43,27,-38
32515,-101562,14843,-3906,2043,-43,27,-38
32517,-101562,14843,-3906,2047,-43,27,-38
32519,-100781,15625,-3906,2047,-44,27,-38
32521,-100781,15625,-3906,2047,-44,27,-38
32523,-100781,15625,-3906,2047,-44,27,-38
32525,-100781,15625,-3906,2037,-44,27,-39
32527,-100781,15625,-3906,2035,-44,27,-39
32529,-100781,15625,-3906,2045,-44,27,-39
32531,-101562,14843,-3125,2036,-45,27,-39
32533,-101562,14843,-3125,2040,-45,27,-39
32535,-101562,14843,-3125,2038,-45,27,-39
32537,-101562,14843,-3125,2047,-45,27,-39
32539,-101562,14843,-3125,2041,-45,27,-39
32541,-100781,14843,-3125,2036,-46,27,-39
32543,-100781,14843,-3125,2048,-46,26,-39
32545,-100781,14843,-3125,2051,-46,26,-39
32561,-101562,16406,-4687,2042,-47,26,-40
32562,-101562,16406,-4687,2036,-47,26,-40
32564,-101562,16406,-4687,2030,-47,26,-40
32566,-101562,16406,-4687,2036,-47,26,-40
32567,-101562,16406,-4687,2042,-47,26,-40
32569,-101562,16406,-4687,2036,-47,26,-40
32570,-101562,15625,-1562,2040,-47,25,-40
32572,-101562,15625,-1562,2051,-47,26,-40
32573,-101562,15625,-1562,2038,-48,26,-41
32575,-101562,15625,-1562,2035,-48,26,-41
32576,-101562,15625,-1562,2035,-48,25,-41
32578,-101562,15625,-1562,2038,-48,25,-41
32579,-101562,15625,-1562,2035,-48,25,-41
32580,-101562,14843,-3906,2041,-48,25,-41
32582,-101562,14843,-3906,2043,-48,25,-41
32583,-101562,14843,-3906,2038,-48,25,-41
32585,-101562,14843,-3906,2049,-48,25,-41
32586,-101562,14843,-3906,2043,-48,25,-41
32588,-101562,14843,-3906,2049,-49,25,-41
32589,-101562,15625,-4687,2033,-49,25,-41
32591,-101562,15625,-4687,2040,-49,25,-41
32593,-101562,15625,-4687,2043,-49,25,-41
32594,-101562,15625,-4687,2046,-49,25,-41
32596,-101562,15625,-4687,2051,-50,25,-41
32597,-101562,15625,-4687,2040,-50,25,-41
32598,-101562,15625,-4687,2048,-50,25,-41
32600,-100781,14062,-3906,2038,-50,25,-41
32601,-100781,14062,-3906,2045,-50,25,-41
32603,-100781,14062,-3906,2045,-50,25,-41
32605,-100781,14062,-3906,2032,-51,25,-41
32607,-100781,14062,-3906,2040,-51,25,-41
32609,-100781,14062,-3906,2043,-51,25,-41
32611,-100781,14062,-4687,2042,-51,25,-41
32613,-100781,14062,-4687,2041,-51,25,-41
32615,-100781,14062,-4687,2041,-52,25,-41
32617,-100781,14062,-4687,2046,-52,25,-41
32619,-100781,14062,-4687,2045,-52,25,-41
32621,-101562,15625,-4687,2043,-52,25,-41
32623,-101562,15625,-4687,2040,-52,25,-42
32625,-101562,15625,-4687,2038,-53,25,-42
32627,-101562,15625,-4687,2037,-53,25,-42
32629,-101562,15625,-4687,2041,-53,25,-42
32631,-101562,14843,-5468,2035,-53,25,-42
32633,-101562,14843,-5468,2038,-53,25,-42
32635,-101562,14843,-5468,2041,-53,25,-41
32637,-101562,14843,-5468,2032,-54,25,-41
32639,-101562,14843,-5468,2037,-54,25,-42
32641,-101562,15625,-4687,2041,-54,25,-42
32643,-101562,15625,-4687,2035,-54,25,-42
32645,-101562,15625,-4687,2040,-54,25,-42
32647,-101562,15625,-4687,2043,-54,25,-41
32649,-101562,15625,-4687,2028,-54,25,-42
32651,-101562,16406,-3906,2035,-54,25,-42
32653,-101562,16406,-3906,2049,-55,25,-42
32655,-101562,16406,-3906,2031,-55,25,-42
32657,-101562,16406,-3906,2041,-55,25,-42
32659,-101562,16406,-3906,2051,-55,25,-42
32661,-101562,15625,-3125,2046,-55,25,-42
32663,-101562,15625,-3125,2047,-55,25,-42
32665,-101562,15625,-3125,2033,-56,25,-42
32667,-101562,15625,-3125,2048,-56,25,-42
32669,-101562,15625,-3125,2043,-56,25,-42
32671,-102343,14843,-3906,2046,-56,25,-42
32673,-102343,14843,-3906,2046,-56,25,-42
32675,-102343,14843,-3906,2035,-57,25,-42
32677,-102343,14843,-3906,2042,-57,25,-42
32679,-102343,14843,-3906,2049,-57,25,-42
32681,-100781,14843,-5468,2046,-57,24,-42
32683,-100781,14843,-5468,2032,-57,24,-43
32685,-100781,14843,-5468,2038,-57,24,-43
32687,-100781,14843,-5468,2037,-58,25,-43
32689,-100781,14843,-5468,2048,-58,24,-43
32691,-101562,14843,-4687,2035,-58,24,-43
32693,-101562,14843,-4687,2032,-58,24,-43
32695,-101562,14843,-4687,2041,-59,24,-43
32697,-101562,14843,-4687,2040,-59,24,-43
32699,-101562,14843,-4687,2045,-59,24,-43
32701,-101562,15625,-4687,2046,-59,24,-43
32703,-101562,15625,-4687,2040,-59,24,-43
32705,-101562,15625,-4687,2035,-60,24,-43
32707,-101562,15625,-4687,2043,-60,24,-44
32709,-101562,15625,-4687,2038,-60,24,-44
32711,-101562,15625,-4687,2036,-60,24,-43
32713,-100781,14062,-4687,2036,-60,24,-44
32715,-100781,14062,-4687,2032,-60,24,-44
32717,-100781,14062,-4687,2043,-61,24,-43
32719,-100781,14062,-4687,2035,-61,24,-44
32721,-100781,14062,-4687,2048,-61,24,-44
32723,-102343,14062,-3906,2045,-61,24,-44
32725,-102343,14062,-3906,2051,-61,24,-44
32727,-102343,14062,-3906,2041,-61,24,-44
32729,-102343,14062,-3906,2041,-62,24,-44
32731,-102343,14062,-3906,2038,-62,25,-44
32733,-102343,15625,-2343,2037,-62,25,-44
32735,-102343,15625,-2343,2048,-62,25,-44
32737,-102343,15625,-2343,2041,-63,25,-44
32739,-102343,15625,-2343,2051,-63,25,-44
32741,-102343,15625,-2343,2046,-63,25,-44
32743,-101562,14843,-3906,2032,-63,25,-44
32745,-101562,14843,-3906,2043,-63,25,-44
32747,-101562,14843,-3906,2052,-63,25,-44
32749,-101562,14843,-3906,2041,-64,25,-44
32751,-101562,14843,-3906,2051,-64,25,-44
32753,-102343,15625,-3906,2042,-64,25,-44
32755,-102343,15625,-3906,2036,-65,25,-44
32757,-102343,15625,-3906,2033,-65,25,-44
32759,-102343,15625,-3906,2042,-65,25,-44
32761,-102343,15625,-3906,2037,-65,25,-44
32763,-100781,15625,-4687,2033,-65,25,-44
32765,-100781,15625,-4687,2046,-66,25,-44
32767,-100781,15625,-4687,2051,-66,25,-44
32769,-100781,15625,-4687,2043,-66,26,-44
32771,-100781,15625,-4687,2041,-66,26,-44
32773,-101562,15625,-3125,2045,-67,26,-44
32775,-101562,15625,-3125,2042,-67,26,-44
32777,-101562,15625,-3125,2041,-67,26,-45
32779,-101562,15625,-3125,2032,-67,26,-45
32781,-101562,15625,-3125,2046,-68,26,-45
32783,-100781,15625,-4687,2037,-68,26,-45
32785,-100781,15625,-4687,2051,-68,26,-45
32787,-100781,15625,-4687,2051,-68,26,-45
32789,-100781,15625,-4687,2035,-68,27,-45
32791,-100781,15625,-4687,2036,-69,27,-45
32793,-101562,14843,-3125,2038,-69,26,-45
32795,-101562,14843,-3125,2038,-69,26,-45
32797,-101562,14843,-3125,2041,-69,26,-45
32799,-101562,14843,-3125,2046,-69,26,-45
32801,-101562,14843,-3125,2038,-70,26,-45
32803,-100781,14062,-3125,2041,-70,26,-45
32805,-100781,14062,-3125,2045,-70,26,-45
32807,-100781,14062,-3125,2053,-70,26,-45
32809,-100781,14062,-3125,2049,-70,26,-45
32811,-100781,14062,-3125,2042,-70,26,-45
32813,-101562,15625,-3906,2045,-70,26,-45
32834,-101562,14843,-3906,2041,-72,27,-45
32836,-101562,14843,-3906,2043,-72,27,-45
32837,-101562,14843,-3906,2043,-72,27,-45
32839,-101562,14843,-3906,2035,-73,27,-45
32840,-101562,14843,-3906,2045,-73,27,-45
32842,-101562,14843,-3906,2042,-73,27,-45
32843,-100781,15625,-4687,2045,-73,27,-45
32845,-100781,15625,-4687,2041,-73,27,-45
32846,-100781,15625,-4687,2046,-73,27,-45
32848,-100781,15625,-4687,2042,-74,28,-45
32849,-100781,15625,-4687,2035,-74,28,-45
32851,-100781,15625,-4687,2046,-74,28,-44
32852,-100781,15625,-4687,2032,-74,28,-44
32854,-101562,15625,-3125,2041,-74,28,-44
