timestamp,accX,accY,accZ,pressure,gyroX,gyroY,gyroZ
455106,-100781,-7812,-5468,2059,-13,36,-23
514385,-101562,781,-1562,2041,-48,29,-30
514387,-101562,781,-1562,2056,-48,29,-30
514389,-101562,781,-1562,2048,-49,29,-30
514391,-100781,781,-2343,2042,-49,29,-30
514393,-100781,781,-2343,2051,-49,29,-30
514395,-100781,781,-2343,2046,-49,29,-29
514397,-100781,781,-2343,2049,-49,29,-29
514399,-100781,781,-2343,2047,-49,29,-29
514401,-100781,781,-1562,2046,-49,29,-29
514403,-100781,781,-1562,2052,-49,29,-29
514405,-100781,781,-1562,2049,-49,29,-29
514407,-100781,781,-1562,2047,-49,29,-29
514409,-100781,781,-1562,2051,-50,29,-29
514411,-100000,781,-2343,2051,-50,29,-29
514413,-100000,781,-2343,2042,-50,29,-28
514415,-100000,781,-2343,2048,-50,29,-29
514417,-100000,781,-2343,2043,-50,29,-28
514419,-100000,781,-2343,2051,-50,29,-28
514421,-101562,781,-781,2040,-50,29,-28
514423,-101562,781,-781,2048,-51,28,-28
514425,-101562,781,-781,2042,-51,28,-28
514427,-101562,781,-781,2045,-51,28,-28
514429,-101562,781,-781,2051,-51,28,-28
514431,-102343,1562,-3125,2057,-51,28,-28
514433,-102343,1562,-3125,2042,-51,28,-28
514435,-102343,1562,-3125,2043,-51,28,-28
514437,-102343,1562,-3125,2046,-51,29,-28
514439,-102343,1562,-3125,2053,-52,29,-28
514441,-101562,0,-781,2052,-52,29,-28
514443,-101562,0,-781,2051,-52,29,-28
514445,-101562,0,-781,2042,-52,28,-28
514448,-101562,0,-781,2046,-52,28,-28
514449,-101562,0,-781,2049,-52,28,-28
514451,-100781,781,-2343,2049,-52,28,-28
514453,-100781,781,-2343,2047,-52,28,-28
514455,-100781,781,-2343,2046,-52,28,-28
514457,-100781,781,-2343,2069,-53,28,-28
514459,-100781,781,-2343,2051,-53,28,-27
514461,-100781,0,-781,2042,-53,28,-27
514463,-100781,0,-781,2053,-53,27,-27
514465,-100781,0,-781,2056,-53,27,-27
514467,-100781,0,-781,2047,-53,27,-27
514469,-100781,0,-781,2049,-54,27,-27
514471,-100781,0,-1562,2051,-54,27,-28
514473,-100781,0,-1562,2051,-54,27,-28
514475,-100781,0,-1562,2047,-54,27,-28
514477,-100781,0,-1562,2048,-54,27,-28
514479,-100781,0,-1562,2045,-54,27,-28
514481,-101562,0,-781,2051,-54,27,-28
514483,-101562,0,-781,2042,-54,27,-28
514485,-101562,0,-781,2049,-54,27,-28
514487,-101562,0,-781,2045,-54,27,-27
514489,-101562,0,-781,2048,-55,27,-27
514491,-100781,0,0,2043,-55,27,-27
514493,-100781,0,0,2058,-55,26,-27
514495,-100781,0,0,2051,-55,26,-27
514497,-100781,0,0,2041,-55,26,-27
514499,-100781,0,0,2045,-55,26,-27
514501,-100781,0,0,2048,-56,26,-27
514503,-100781,0,0,2040,-56,26,-27
514505,-100781,0,0,2053,-56,26,-27
514507,-100781,0,0,2043,-56,26,-27
514509,-100781,0,0,2051,-56,26,-27
514511,-100781,0,-781,2042,-56,26,-27
514513,-100781,0,-781,2049,-56,26,-27
514515,-100781,0,-781,2047,-57,26,-27
514517,-100781,0,-781,2046,-57,25,-27
514519,-100781,0,-781,2056,-57,25,-27
514521,-101562,781,-781,2040,-57,25,-27
514523,-101562,781,-781,2047,-57,25,-27
514525,-101562,781,-781,2052,-57,25,-26
514527,-101562,781,-781,2051,-57,25,-26
514529,-101562,781,-781,2043,-57,25,-26
514531,-100781,0,0,2053,-57,25,-26
514533,-100781,0,0,2045,-57,25,-26
514535,-100781,0,0,2047,-57,25,-26
514551,-100781,781,-781,2041,-58,24,-25
514552,-100781,0,0,2048,-58,24,-25
514554,-100781,0,0,2041,-58,24,-25
514556,-100781,0,0,2051,-58,24,-25
514557,-100781,0,0,2047,-58,24,-25
514558,-100781,0,0,2058,-58,24,-25
514560,-100781,0,0,2046,-58,24,-25
514561,-100781,781,-781,2056,-58,24,-25
514563,-100781,781,-781,2042,-58,24,-25
514564,-100781,781,-781,2049,-58,24,-25
514566,-100781,781,-781,2047,-58,24,-25
514567,-100781,781,-781,2045,-58,24,-25
514569,-100781,781,-781,2046,-58,23,-25
514570,-100781,781,-781,2049,-58,23,-25
514572,-100781,0,-781,2051,-58,23,-25
514573,-100781,0,-781,2042,-58,23,-25
514575,-100781,0,-781,2045,-58,23,-25
514576,-100781,0,-781,2058,-58,23,-25
514578,-100781,0,-781,2046,-59,23,-25
514579,-100781,0,-781,2045,-59,23,-25
514581,-100781,0,-781,2046,-59,23,-25
514582,-100781,0,-781,2057,-59,23,-25
514584,-100781,0,-781,2048,-59,23,-25
514585,-100781,0,-781,2049,-59,23,-25
514587,-100781,0,-781,2043,-59,23,-25
514588,-100781,0,-781,2049,-59,23,-25
514590,-100781,0,-781,2046,-59,23,-24
514591,-100781,0,-781,2051,-59,23,-24
514593,-100781,0,-781,2051,-59,23,-24
514595,-100781,0,-781,2041,-60,23,-24
514597,-100781,0,-781,2051,-60,23,-24
514599,-100781,0,-781,2057,-60,23,-24
514601,-100781,0,-781,2052,-60,23,-24
514603,-100781,0,0,2051,-60,23,-24
514605,-100781,0,0,2051,-60,23,-24
514607,-100781,0,0,2049,-60,23,-24
514609,-100781,0,0,2042,-60,23,-24
514611,-100781,0,0,2051,-60,23,-24
514613,-100781,781,-781,2049,-60,23,-24
514615,-100781,781,-781,2058,-60,23,-24
514617,-100781,781,-781,2046,-59,23,-24
514619,-100781,781,-781,2048,-59,23,-24
514621,-100781,781,-781,2051,-59,23,-24
514623,-100000,781,781,2041,-60,22,-24
514625,-100000,781,781,2052,-60,22,-24
514627,-100000,781,781,2041,-60,22,-24
514629,-100000,781,781,2048,-60,22,-24
514631,-100000,781,781,2046,-60,22,-24
514633,-100000,0,0,2041,-60,22,-24
514635,-100000,0,0,2049,-60,22,-24
514637,-100000,0,0,2052,-60,22,-24
514639,-100000,0,0,2049,-60,22,-23
514641,-100000,0,0,2058,-60,22,-23
514643,-100000,-781,0,2054,-60,22,-23
514645,-100000,-781,0,2040,-60,22,-23
514647,-100000,-781,0,2038,-60,22,-24
514649,-100000,-781,0,2041,-60,22,-24
514651,-100000,-781,0,2063,-60,22,-24
514654,-100000,-781,0,2046,-60,22,-24
514655,-100000,-781,0,2054,-60,22,-24
514657,-100000,-781,0,2043,-60,22,-24
514659,-100000,-781,0,2048,-60,22,-24
514661,-100000,-781,0,2040,-60,22,-24
514663,-100781,0,781,2061,-60,22,-23
514665,-100781,0,781,2043,-60,22,-23
514667,-100781,0,781,2053,-60,22,-23
514669,-100781,0,781,2053,-60,22,-23
514671,-100781,0,781,2061,-60,21,-23
514673,-100000,0,781,2053,-60,21,-23
514675,-100000,0,781,2051,-60,21,-23
514677,-100000,0,781,2049,-60,21,-23
514679,-100000,0,781,2053,-60,21,-23
514681,-100000,0,781,2047,-60,21,-23
514683,-99218,0,1562,2054,-60,21,-23
514685,-99218,0,1562,2047,-60,22,-22
514687,-99218,0,1562,2038,-60,21,-23
514689,-99218,0,1562,2054,-60,21,-23
514691,-99218,0,1562,2042,-60,21,-23
514693,-99218,781,0,2052,-60,21,-23
514695,-99218,781,0,2053,-60,21,-23
514697,-99218,781,0,2049,-60,21,-23
514699,-99218,781,0,2051,-60,21,-23
514701,-99218,781,0,2049,-60,21,-23
514703,-100000,0,0,2052,-60,21,-23
514705,-100000,0,0,2057,-60,21,-23
514707,-100000,0,0,2041,-60,21,-23
514709,-100000,0,0,2051,-60,21,-23
514711,-100000,0,0,2049,-60,21,-23
514713,-100000,0,0,2056,-59,21,-23
514715,-100000,0,0,2051,-59,21,-23
514717,-100000,0,0,2051,-59,21,-22
514719,-100000,0,0,2045,-59,21,-23
514721,-100000,0,0,2049,-59,21,-23
514723,-100000,0,0,2049,-59,21,-23
514725,-99218,-1562,781,2051,-59,21,-23
514727,-99218,-1562,781,2048,-59,21,-23
514729,-99218,-1562,781,2049,-59,21,-23
514731,-99218,-1562,781,2047,-59,21,-23
514733,-99218,-1562,781,2051,-59,21,-23
514735,-99218,0,781,2053,-59,21,-22
514737,-99218,0,781,2054,-59,20,-22
514739,-99218,0,781,2045,-59,20,-22
514741,-99218,0,781,2057,-59,20,-22
514743,-99218,0,781,2052,-59,20,-22
514745,-99218,0,781,2047,-59,20,-22
514747,-99218,0,781,2043,-59,20,-22
514749,-99218,0,781,2042,-59,20,-22
514751,-99218,0,781,2048,-59,20,-22
514753,-99218,0,781,2056,-58,20,-22
514755,-99218,0,781,2053,-58,20,-22
514757,-99218,0,781,2053,-58,20,-22
514759,-99218,0,781,2059,-59,20,-22
514761,-99218,0,781,2045,-59,20,-22
514763,-99218,0,781,2048,-58,20,-22
514765,-98437,0,1562,2045,-58,20,-22
514767,-98437,0,1562,2043,-58,20,-22
514769,-98437,0,1562,2045,-59,20,-21
514771,-98437,0,1562,2043,-58,20,-21
514773,-98437,0,1562,2051,-58,20,-21
514775,-99218,-781,2343,2046,-58,20,-21
514777,-99218,-781,2343,2046,-58,20,-22
514779,-99218,-781,2343,2041,-58,20,-21
514781,-99218,-781,2343,2056,-58,20,-22
514783,-99218,-781,2343,2045,-58,20,-22
514785,-97656,-781,1562,2041,-58,20,-22
514787,-97656,-781,1562,2043,-58,20,-22
514789,-97656,-781,1562,2040,-57,20,-22
514791,-97656,-781,1562,2052,-57,20,-22
514793,-97656,-781,1562,2036,-57,20,-22
514795,-99218,-781,781,2042,-57,20,-22
514797,-99218,-781,781,2040,-57,21,-22
514799,-99218,-781,781,2056,-57,21,-22
514801,-99218,-781,781,2061,-57,21,-22
514803,-99218,-781,781,2051,-56,21,-22
514805,-98437,0,1562,2051,-56,21,-22
514807,-98437,0,1562,2045,-56,21,-22
514809,-98437,0,1562,2047,-56,21,-22
514811,-98437,0,1562,2062,-56,21,-22
514813,-98437,0,1562,2052,-56,20,-21
514815,-99218,781,1562,2047,-55,20,-21
514817,-99218,781,1562,2048,-55,21,-21
514819,-99218,781,1562,2058,-55,21,-21
514821,-99218,781,1562,2051,-55,21,-21
514823,-99218,781,1562,2053,-55,21,-21
514825,-97656,-781,2343,2046,-55,21,-21
514827,-97656,-781,2343,2049,-54,21,-21
514829,-97656,-781,2343,2047,-54,21,-21
514831,-97656,-781,2343,2046,-54,21,-21
514833,-97656,-781,2343,2051,-54,21,-21
514835,-98437,0,1562,2052,-54,21,-21
514837,-98437,0,1562,2061,-54,21,-21
514839,-98437,0,1562,2047,-54,21,-21
514841,-98437,0,1562,2043,-54,21,-21
514843,-98437,0,1562,2043,-53,21,-21
514845,-99218,781,1562,2046,-53,21,-21
514847,-99218,781,1562,2045,-53,21,-21
514849,-99218,781,1562,2053,-53,21,-21
514851,-99218,781,1562,2041,-53,21,-21
514853,-99218,781,1562,2037,-53,21,-21
514855,-99218,781,3125,2051,-53,21,-21
514857,-99218,781,3125,2041,-53,21,-21
514860,-99218,781,3125,2051,-53,21,-21
514861,-99218,781,3125,2053,-53,21,-21
514863,-99218,781,3125,2049,-53,21,-21
514865,-98437,-1562,1562,2058,-52,21,-21
514867,-98437,-1562,1562,2056,-52,21,-21
514869,-98437,-1562,1562,2061,-52,21,-21
514871,-98437,-1562,1562,2052,-52,21,-21
514873,-98437,-1562,1562,2058,-52,21,-21
514875,-97656,-781,1562,2057,-52,21,-21
514877,-97656,-781,1562,2051,-52,21,-21
514879,-97656,-781,1562,2049,-51,21,-21
514881,-97656,-781,1562,2049,-51,21,-21
514883,-97656,-781,1562,2046,-51,21,-20
514885,-97656,-781,1562,2051,-51,21,-20
514887,-98437,-781,0,2046,-51,21,-21
514889,-98437,-781,0,2051,-51,21,-21
514891,-98437,-781,0,2047,-51,21,-21
514893,-98437,-781,0,2047,-50,21,-21
514895,-98437,-781,0,2047,-50,21,-21
514897,-97656,-781,1562,2047,-50,21,-21
514899,-97656,-781,1562,2051,-50,21,-21
514901,-97656,-781,1562,2048,-50,21,-21
514903,-97656,-781,1562,2049,-50,21,-21
514905,-97656,-781,1562,2041,-49,21,-21
514907,-99218,0,2343,2041,-49,21,-21
514909,-99218,0,2343,2042,-49,21,-21
514911,-99218,0,2343,2053,-49,21,-21
514913,-99218,0,2343,2051,-49,21,-21
514915,-99218,0,2343,2059,-49,21,-21
514917,-97656,0,2343,2040,-48,21,-21
514919,-97656,0,2343,2043,-48,21,-21
514921,-97656,0,2343,2043,-48,21,-21
514923,-97656,0,2343,2043,-48,21,-21
514925,-97656,0,2343,2046,-48,21,-21
514928,-97656,0,0,2045,-48,21,-21
514929,-97656,0,0,2052,-48,21,-21
514931,-97656,0,0,2051,-48,21,-21
514933,-97656,0,0,2046,-48,21,-21
514935,-97656,0,0,2051,-48,21,-21
514937,-98437,0,0,2051,-48,21,-21
514939,-98437,0,0,2045,-47,21,-21
514941,-98437,0,0,2045,-47,21,-21
514943,-98437,0,0,2052,-47,21,-21
514945,-98437,0,0,2052,-47,21,-21
514947,-97656,-781,1562,2040,-47,22,-21
514949,-97656,-781,1562,2057,-47,22,-21
514951,-97656,-781,1562,2051,-47,21,-21
514953,-97656,-781,1562,2058,-47,21,-21
514955,-97656,-781,1562,2057,-47,21,-21
514957,-98437,781,1562,2052,-46,21,-21
514959,-98437,781,1562,2051,-46,21,-21
514961,-98437,781,1562,2051,-46,21,-21
514963,-98437,781,1562,2045,-46,21,-21
514965,-98437,781,1562,2047,-46,21,-21
514967,-98437,0,1562,2056,-46,21,-21
514969,-98437,0,1562,2062,-46,21,-21
514971,-98437,0,1562,2038,-46,21,-20
514973,-98437,0,1562,2052,-46,21,-20
514975,-98437,0,1562,2043,-46,21,-20
514977,-97656,-781,781,2042,-45,21,-20
514979,-97656,-781,781,2061,-45,21,-20
514981,-97656,-781,781,2047,-45,20,-20
514983,-97656,-781,781,2051,-45,20,-20
514985,-97656,-781,781,2048,-45,20,-20
514987,-99218,781,781,2041,-45,20,-20
514989,-99218,781,781,2048,-45,20,-20
514991,-99218,781,781,2042,-45,20,-20
514993,-99218,781,781,2048,-44,20,-20
514995,-99218,781,781,2053,-44,20,-20
514997,-98437,-781,781,2043,-44,20,-20
514999,-98437,-781,781,2049,-44,20,-20
515001,-98437,-781,781,2061,-44,20,-20
515003,-98437,-781,781,2051,-44,20,-20
515005,-98437,-781,781,2048,-44,20,-20
515007,-99218,-781,0,2046,-44,20,-20
515009,-99218,-781,0,2045,-44,20,-20
515011,-99218,-781,0,2045,-44,20,-20
515013,-99218,-781,0,2045,-43,20,-20
515015,-99218,-781,0,2051,-43,20,-20
515017,-99218,-781,781,2043,-43,21,-20
515019,-99218,-781,781,2048,-43,21,-20
515021,-99218,-781,781,2049,-43,21,-20
515023,-99218,-781,781,2049,-43,21,-19
515025,-99218,-781,781,2046,-43,21,-19
515027,-100000,-781,0,2042,-43,21,-19
515029,-100000,-781,0,2051,-43,21,-20
515031,-100000,-781,0,2047,-43,21,-20
515033,-100000,-781,0,2049,-43,21,-20
515035,-100000,-781,0,2046,-43,21,-19
515037,-99218,781,0,2045,-43,21,-19
515039,-99218,781,0,2058,-43,21,-19
515041,-99218,781,0,2042,-43,21,-19
515043,-99218,781,0,2042,-43,21,-20
515045,-99218,781,0,2051,-43,21,-20
515047,-99218,0,0,2048,-43,21,-20
515049,-99218,0,0,2047,-43,21,-20
515051,-99218,0,0,2051,-42,21,-20
515053,-99218,0,0,2047,-42,21,-20
515055,-99218,0,0,2041,-42,21,-20
515057,-100000,0,0,2046,-42,21,-20
515060,-100000,0,0,2042,-42,21,-20
515061,-100000,0,0,2051,-42,21,-20
515063,-100000,0,0,2049,-42,21,-20
515065,-100000,0,0,2057,-42,21,-20
515067,-100000,0,0,2042,-42,21,-20
515069,-100000,0,-781,2043,-42,21,-20
515071,-100000,0,-781,2057,-42,22,-20
515073,-100000,0,-781,2051,-42,21,-19
515075,-100000,0,-781,2047,-42,21,-20
515077,-100000,0,-781,2046,-42,21,-20
515079,-100000,0,-781,2047,-41,21,-20
515081,-100000,0,-781,2038,-41,21,-19
515083,-100000,0,-781,2052,-41,21,-19
515085,-100000,0,-781,2049,-41,21,-19
515087,-100000,0,-781,2049,-41,21,-19
515089,-100000,0,-1562,2042,-41,21,-19
515091,-100000,0,-1562,2051,-41,21,-19
515093,-100000,0,-1562,2051,-41,21,-19
515095,-100000,0,-1562,2057,-41,21,-19
515097,-100000,0,-1562,2045,-41,21,-19
515099,-100000,-781,-781,2047,-41,21,-19
515101,-100000,-781,-781,2048,-41,21,-19
515103,-100000,-781,-781,2052,-41,21,-19
515105,-100000,-781,-781,2051,-41,21,-19
515107,-100000,-781,-781,2042,-41,21,-19
515109,-100781,0,-781,2043,-41,21,-19
515111,-100781,0,-781,2047,-41,21,-19
515113,-100781,0,-781,2046,-42,21,-19
515115,-100781,0,-781,2041,-42,21,-19
515117,-100781,0,-781,2051,-42,21,-19
515119,-100000,0,-1562,2043,-42,21,-19
515121,-100000,0,-1562,2042,-42,21,-19
515123,-100000,0,-1562,2057,-42,21,-19
515125,-100000,0,-1562,2049,-42,20,-19
515127,-100000,0,-1562,2047,-42,20,-19
515129,-100781,0,-2343,2048,-42,20,-19
515131,-100781,0,-2343,2045,-42,20,-19
515133,-100781,0,-2343,2042,-42,20,-19
515135,-100781,0,-2343,2041,-43,21,-19
515137,-100781,0,-2343,2051,-43,21,-19
515139,-100781,0,-1562,2043,-43,21,-19
515141,-100781,0,-1562,2045,-43,21,-19
515143,-100781,0,-1562,2048,-43,21,-19
515145,-100781,0,-1562,2045,-43,21,-19
515147,-100781,0,-1562,2046,-43,21,-19
515149,-101562,781,-2343,2051,-43,21,-19
515151,-101562,781,-2343,2045,-43,21,-19
515153,-101562,781,-2343,2057,-43,21,-19
515155,-101562,781,-2343,2042,-44,21,-19
515157,-101562,781,-2343,2042,-44,21,-19
515159,-101562,0,-1562,2054,-44,21,-19
515161,-101562,0,-1562,2045,-44,21,-19
515163,-101562,0,-1562,2041,-44,20,-19
515165,-101562,0,-1562,2048,-44,20,-19
515167,-101562,0,-1562,2051,-44,20,-19
515169,-102343,0,-1562,2051,-44,21,-19
515171,-102343,0,-1562,2043,-45,21,-19
515173,-102343,0,-1562,2046,-45,21,-19
515175,-102343,0,-1562,2053,-45,21,-19
515177,-102343,0,-1562,2057,-45,21,-19
515179,-100781,0,-1562,2054,-45,21,-19
515181,-100781,0,-1562,2048,-45,21,-19
515183,-100781,0,-1562,2054,-45,20,-19
515185,-100781,0,-1562,2043,-45,20,-19
515187,-100781,0,-1562,2052,-45,20,-19
515189,-101562,0,-1562,2048,-46,20,-19
515191,-101562,0,-1562,2049,-46,20,-19
515193,-101562,0,-1562,2047,-46,20,-19
515195,-101562,0,-1562,2056,-46,20,-19
515197,-101562,0,-1562,2054,-46,20,-19
515199,-101562,0,-781,2045,-46,20,-19
515201,-101562,0,-781,2054,-46,20,-19
515203,-101562,0,-781,2052,-46,20,-19
515205,-101562,0,-781,2041,-47,20,-19
515207,-101562,0,-781,2041,-47,20,-19
515209,-101562,-781,-2343,2041,-47,20,-19
515211,-101562,-781,-2343,2049,-47,20,-19
515213,-101562,-781,-2343,2046,-47,20,-19
515215,-101562,-781,-2343,2042,-47,20,-19
515217,-101562,-781,-2343,2041,-47,20,-19
515219,-101562,0,-2343,2052,-47,20,-19
515221,-101562,0,-2343,2056,-47,20,-19
515223,-101562,0,-2343,2049,-47,20,-19
515225,-101562,0,-2343,2046,-48,20,-19
515227,-101562,0,-2343,2048,-48,20,-19
515229,-102343,-781,-3125,2056,-48,20,-19
515231,-102343,-781,-3125,2058,-48,20,-19
515233,-102343,-781,-3125,2046,-48,20,-19
515235,-102343,-781,-3125,2049,-48,20,-19
515237,-102343,-781,-3125,2051,-49,20,-19
515239,-102343,-781,-3125,2047,-49,20,-19
515241,-101562,0,-2343,2046,-49,20,-19
515244,-101562,0,-2343,2049,-49,20,-19
515245,-101562,0,-2343,2046,-49,20,-19
515247,-101562,0,-2343,2047,-49,20,-19
515249,-101562,0,-2343,2056,-49,20,-18
515251,-102343,0,-2343,2045,-49,20,-18
515253,-102343,0,-2343,2047,-50,20,-18
515255,-102343,0,-2343,2046,-50,20,-18
515257,-102343,0,-2343,2054,-50,20,-18
515259,-102343,0,-2343,2042,-50,19,-18
515261,-103125,0,-781,2057,-50,19,-18
515263,-103125,0,-781,2047,-50,19,-18
515265,-103125,0,-781,2053,-50,19,-19
515267,-103125,0,-781,2048,-51,19,-19
515269,-103125,0,-781,2045,-51,19,-18
515271,-103125,-781,-1562,2051,-51,19,-19
515273,-103125,-781,-1562,2063,-52,19,-19
515275,-103125,-781,-1562,2051,-52,19,-19
515277,-103125,-781,-1562,2046,-52,19,-19
515279,-103125,-781,-1562,2042,-52,20,-19
515281,-102343,0,-2343,2048,-52,19,-19
515283,-102343,0,-2343,2042,-53,19,-19
515285,-102343,0,-2343,2046,-53,19,-19
515287,-102343,0,-2343,2045,-53,19,-19
515289,-102343,0,-2343,2051,-53,19,-19
515291,-102343,0,-3125,2049,-53,19,-19
515293,-102343,0,-3125,2052,-53,19,-19
515295,-102343,0,-3125,2049,-53,19,-19
515297,-102343,0,-3125,2059,-54,19,-19
515299,-102343,0,-3125,2053,-54,20,-19
515301,-102343,0,-1562,2048,-54,20,-19
515303,-102343,0,-1562,2045,-54,20,-19
515305,-102343,0,-1562,2047,-54,20,-19
515307,-102343,0,-1562,2046,-55,20,-19
515309,-102343,0,-1562,2037,-55,20,-19
515311,-102343,-781,-3906,2049,-55,20,-19
515313,-102343,-781,-3906,2046,-55,20,-19
515315,-102343,-781,-3906,2041,-55,20,-19
515317,-102343,-781,-3906,2052,-56,20,-19
515319,-102343,-781,-3906,2051,-56,20,-19
515321,-103125,-781,-2343,2054,-56,20,-19
515323,-103125,-781,-2343,2053,-56,20,-19
515325,-103125,-781,-2343,2048,-56,20,-19
515327,-103125,-781,-2343,2043,-57,20,-19
515329,-103125,-781,-2343,2051,-57,20,-19
515331,-103125,0,-2343,2042,-57,20,-19
515333,-103125,0,-2343,2052,-57,20,-19
515335,-103125,0,-2343,2042,-57,20,-19
515337,-103125,0,-2343,2048,-58,20,-19
515339,-103125,0,-2343,2047,-58,20,-20
515341,-103125,-781,-3125,2043,-58,20,-19
515343,-103125,-781,-3125,2049,-58,20,-19
515345,-103125,-781,-3125,2047,-58,20,-19
515347,-103125,-781,-3125,2042,-58,20,-19
515349,-103125,-781,-3125,2049,-59,20,-19
515351,-103125,-781,-1562,2056,-59,20,-19
515353,-103125,-781,-1562,2046,-59,20,-19
515355,-103125,-781,-1562,2038,-59,20,-19
515357,-103125,-781,-1562,2049,-59,20,-20
515359,-103125,-781,-1562,2049,-59,20,-20
515361,-103125,-781,-2343,2047,-59,19,-20
515363,-103125,-781,-2343,2046,-60,20,-20
515365,-103125,-781,-2343,2049,-60,20,-20
515367,-103125,-781,-2343,2053,-60,20,-20
515369,-103125,-781,-2343,2049,-60,20,-20
515371,-103125,0,-3906,2041,-61,20,-20
515373,-103125,0,-3906,2052,-61,20,-20
515375,-103125,0,-3906,2053,-61,20,-20
515377,-103125,0,-3906,2054,-61,20,-20
515379,-103125,0,-3906,2059,-62,20,-20
515381,-102343,-781,-1562,2043,-62,20,-20
515383,-102343,-781,-1562,2051,-62,20,-20
515386,-102343,-781,-1562,2042,-62,20,-20
515387,-102343,-781,-1562,2049,-63,20,-21
515389,-102343,-781,-1562,2054,-63,20,-21
515391,-102343,-781,-1562,2051,-63,20,-20
515393,-102343,-781,-1562,2045,-63,20,-20
515395,-102343,-781,-1562,2045,-64,20,-20
515397,-102343,-781,-1562,2049,-64,20,-20
515399,-102343,-781,-1562,2057,-64,20,-20
515401,-103125,-781,-2343,2041,-64,21,-20
515403,-103125,-781,-2343,2042,-64,21,-20
515405,-103125,-781,-2343,2049,-64,21,-20
515407,-103125,-781,-2343,2042,-64,21,-20
515409,-103125,-781,-2343,2043,-64,21,-20
515411,-103125,-781,-2343,2041,-65,20,-20
515413,-102343,-781,-2343,2048,-65,20,-20
515415,-102343,-781,-2343,2049,-65,20,-20
515417,-102343,-781,-2343,2051,-65,20,-20
515419,-102343,-781,-2343,2054,-65,20,-20
515421,-102343,-781,-2343,2048,-65,20,-20
515423,-102343,-1562,-2343,2051,-66,21,-20
515425,-102343,-1562,-2343,2058,-66,21,-20
515427,-102343,-1562,-2343,2046,-66,21,-20
515429,-102343,-1562,-2343,2046,-66,21,-20
515431,-102343,-1562,-2343,2045,-66,21,-20
515433,-102343,-781,-2343,2052,-67,21,-20
515435,-102343,-781,-2343,2042,-67,21,-20
515437,-102343,-781,-2343,2047,-67,21,-20
515439,-102343,-781,-2343,2051,-67,21,-20
515441,-102343,-781,-2343,2042,-67,21,-20
515443,-102343,-1562,-781,2048,-67,21,-20
515445,-102343,-1562,-781,2049,-68,21,-21
515447,-102343,-1562,-781,2053,-68,21,-21
515449,-102343,-1562,-781,2046,-68,21,-21
515451,-102343,-1562,-781,2048,-68,21,-21
515453,-101562,-1562,-2343,2053,-68,21,-21
515455,-101562,-1562,-2343,2046,-68,21,-21
515470,-102343,-1562,-1562,2053,-69,21,-21
515471,-102343,-1562,-1562,2051,-69,21,-21
515473,-102343,-1562,-2343,2052,-70,21,-21
515474,-102343,-1562,-2343,2047,-70,21,-21
515476,-102343,-1562,-2343,2059,-70,21,-21
515477,-102343,-1562,-2343,2051,-70,21,-21
515479,-102343,-1562,-2343,2046,-70,21,-21
515481,-102343,-1562,-2343,2047,-71,21,-21
515482,-102343,-1562,-2343,2046,-71,21,-21
515483,-101562,-781,-1562,2053,-71,21,-21
515485,-101562,-781,-1562,2041,-71,22,-21
515486,-101562,-781,-1562,2045,-71,21,-21
515488,-101562,-781,-1562,2061,-71,21,-21
515489,-101562,-781,-1562,2045,-71,21,-22
515491,-101562,-781,-1562,2061,-71,21,-22
515492,-102343,-781,-1562,2053,-71,22,-22
515494,-102343,-781,-1562,2046,-71,22,-22
515495,-102343,-781,-1562,2051,-72,22,-21
515497,-102343,-781,-1562,2051,-72,22,-21
515498,-102343,-781,-1562,2052,-72,21,-21
515500,-102343,-781,-1562,2047,-72,21,-21
515501,-102343,-781,-1562,2041,-72,21,-21
515503,-101562,-1562,-2343,2051,-73,21,-21
515504,-101562,-1562,-2343,2042,-73,21,-21
515506,-101562,-1562,-2343,2057,-73,21,-21
515507,-101562,-1562,-2343,2041,-73,21,-22
515509,-101562,-1562,-2343,2036,-73,21,-22
515511,-101562,-1562,-2343,2056,-73,21,-22
515513,-101562,-1562,-1562,2056,-73,21,-22
515515,-101562,-1562,-1562,2045,-73,22,-21
515517,-101562,-1562,-1562,2051,-74,22,-21
515519,-101562,-1562,-1562,2045,-74,21,-22
515521,-101562,-1562,-1562,2057,-74,21,-22
515523,-102343,-3125,-781,2057,-74,22,-22
515525,-102343,-3125,-781,2054,-74,22,-22
515527,-102343,-3125,-781,2043,-75,22,-22
515529,-102343,-3125,-781,2045,-75,22,-22
515531,-102343,-3125,-781,2053,-75,22,-22
515533,-101562,-2343,-1562,2045,-75,22,-22
515535,-101562,-2343,-1562,2041,-76,22,-22
515537,-101562,-2343,-1562,2043,-76,22,-23
515539,-101562,-2343,-1562,2046,-76,22,-23
515541,-101562,-2343,-1562,2045,-76,22,-23
515543,-101562,-1562,-1562,2052,-76,22,-23
515545,-101562,-1562,-1562,2053,-76,23,-23
515547,-101562,-1562,-1562,2049,-76,23,-23
515549,-101562,-1562,-1562,2045,-77,23,-23
515551,-101562,-1562,-1562,2056,-77,23,-23
515553,-101562,-3125,-1562,2051,-77,23,-23
515555,-101562,-3125,-1562,2045,-77,23,-23
515557,-101562,-3125,-1562,2042,-77,23,-23
515559,-101562,-3125,-1562,2046,-77,23,-23
515561,-101562,-3125,-1562,2046,-77,23,-23
515563,-101562,-2343,-781,2057,-77,23,-23
515565,-101562,-2343,-781,2052,-77,23,-23
515567,-101562,-2343,-781,2042,-77,23,-23
515569,-101562,-2343,-781,2051,-77,23,-23
515571,-101562,-2343,-781,2054,-77,23,-23
515573,-101562,-3125,-781,2052,-77,23,-23
515575,-101562,-3125,-781,2041,-78,24,-23
515577,-101562,-3125,-781,2053,-78,23,-23
515579,-101562,-3125,-781,2051,-78,24,-24
515581,-101562,-3125,-781,2046,-78,24,-24
515583,-101562,-3125,-781,2041,-78,24,-24
515585,-100781,-2343,-781,2041,-78,24,-24
515587,-100781,-2343,-781,2051,-78,24,-24
515589,-100781,-2343,-781,2046,-78,24,-24
515591,-100781,-2343,-781,2046,-78,24,-24
515593,-100781,-2343,-781,2041,-78,24,-24
515595,-100781,-2343,-781,2045,-78,24,-24
515597,-100781,-2343,-781,2045,-78,24,-24
515599,-100781,-2343,-781,2047,-78,24,-24
515601,-100781,-2343,-781,2041,-78,24,-24
515603,-100781,-2343,-781,2063,-79,24,-24
515605,-100781,-2343,0,2041,-79,24,-24
515607,-100781,-2343,0,2052,-79,24,-24
515609,-100781,-2343,0,2049,-79,24,-25
515611,-100781,-2343,0,2052,-79,24,-25
515613,-100781,-2343,0,2047,-79,24,-25
515615,-100781,-1562,0,2042,-79,24,-25
515617,-100781,-1562,0,2041,-79,23,-25
515619,-100781,-1562,0,2045,-79,23,-25
515621,-100781,-1562,0,2046,-79,23,-25
515623,-100781,-1562,0,2051,-79,23,-26
515625,-100781,-2343,781,2057,-79,23,-26
515627,-100781,-2343,781,2053,-79,23,-26
515629,-100781,-2343,781,2056,-79,23,-26
515631,-100781,-2343,781,2048,-79,23,-26
515633,-100781,-2343,781,2052,-79,23,-26
515635,-100000,-3125,1562,2056,-79,23,-26
515638,-100000,-3125,1562,2047,-79,23,-26
515639,-100000,-3125,1562,2057,-79,23,-26
515641,-100000,-3125,1562,2049,-79,23,-26
515643,-100000,-3125,1562,2046,-79,23,-26
515645,-102343,-1562,0,2059,-79,23,-26
515647,-102343,-1562,0,2058,-79,23,-26
515649,-102343,-1562,0,2047,-79,23,-26
515651,-102343,-1562,0,2042,-79,23,-27
515653,-102343,-1562,0,2051,-79,23,-27
515655,-100781,-781,0,2052,-79,23,-27
515657,-100781,-781,0,2057,-80,23,-27
515659,-100781,-781,0,2049,-80,23,-27
515661,-100781,-781,0,2047,-80,23,-27
515663,-100781,-781,0,2048,-79,23,-27
515665,-100000,-1562,1562,2041,-79,23,-27
515667,-100000,-1562,1562,2051,-79,23,-27
515669,-100000,-1562,1562,2043,-79,23,-27
515671,-100000,-1562,1562,2052,-79,23,-27
515673,-100000,-1562,1562,2061,-79,23,-27
515675,-101562,-781,781,2045,-78,23,-27
515677,-101562,-781,781,2054,-79,23,-27
515679,-101562,-781,781,2043,-79,23,-28
515681,-101562,-781,781,2046,-79,23,-28
515683,-101562,-781,781,2047,-79,23,-27
515685,-100000,-1562,781,2056,-79,24,-27
515687,-100000,-1562,781,2047,-79,24,-28
515689,-100000,-1562,781,2046,-79,24,-28
515691,-100000,-1562,781,2041,-79,24,-28
515693,-100000,-1562,781,2047,-79,24,-28
515695,-100000,0,0,2041,-79,24,-28
515697,-100000,0,0,2052,-79,24,-28
515699,-100000,0,0,2045,-78,24,-28
515701,-100000,0,0,2043,-78,24,-28
515703,-100000,0,0,2053,-78,24,-28
515705,-100000,0,781,2049,-78,24,-28
515707,-100000,0,781,2041,-78,24,-28
515709,-100000,0,781,2041,-78,24,-28
515711,-100000,0,781,2045,-78,24,-28
515713,-100000,0,781,2054,-78,24,-28
515715,-100000,-781,781,2061,-78,24,-28
515717,-100000,-781,781,2051,-78,23,-28
515719,-100000,-781,781,2061,-78,23,-28
515721,-100000,-781,781,2045,-78,23,-28
515723,-100000,-781,781,2051,-78,23,-28
515725,-99218,-1562,781,2046,-78,23,-29
515727,-99218,-1562,781,2045,-78,23,-28
515729,-99218,-1562,781,2049,-78,23,-28
515731,-99218,-1562,781,2058,-77,24,-29
515733,-99218,-1562,781,2049,-77,24,-29
515735,-100000,-2343,781,2053,-77,24,-29
515737,-100000,-2343,781,2047,-77,23,-29
515739,-100000,-2343,781,2053,-77,23,-29
515741,-100000,-2343,781,2048,-77,23,-29
515743,-100000,-2343,781,2049,-77,23,-29
515745,-99218,-1562,781,2048,-77,23,-29
515747,-99218,-1562,781,2040,-77,23,-29
515749,-99218,-1562,781,2048,-77,23,-29
515751,-99218,-1562,781,2047,-76,23,-29
515753,-99218,-1562,781,2046,-76,23,-29
515755,-99218,-1562,781,2046,-76,23,-29
515757,-99218,-1562,1562,2047,-76,23,-29
515759,-99218,-1562,1562,2048,-76,23,-29
515761,-99218,-1562,1562,2038,-76,23,-29
515763,-99218,-1562,1562,2056,-76,23,-29
515765,-99218,-1562,1562,2053,-76,23,-29
515767,-100000,0,781,2049,-76,23,-29
515769,-100000,0,781,2041,-76,23,-29
515771,-100000,0,781,2056,-76,23,-29
515774,-100000,0,781,2041,-76,23,-29
515775,-100000,0,781,2045,-76,23,-30
515777,-99218,-781,1562,2051,-76,23,-30
515779,-99218,-781,1562,2051,-75,23,-30
515781,-99218,-781,1562,2051,-75,23,-30
515783,-99218,-781,1562,2051,-76,23,-30
515785,-99218,-781,1562,2049,-75,23,-29
515787,-99218,-781,1562,2043,-75,23,-29
515789,-99218,-781,1562,2042,-75,23,-29
515791,-99218,-781,1562,2047,-75,23,-29
515793,-99218,-781,1562,2046,-75,22,-29
515795,-99218,-781,1562,2046,-75,22,-29
515797,-99218,-1562,781,2048,-75,22,-29
515799,-99218,-1562,781,2040,-75,22,-29
515801,-99218,-1562,781,2049,-74,22,-29
515803,-99218,-1562,781,2041,-74,22,-29
515805,-99218,-1562,781,2042,-74,22,-29
515807,-99218,-781,1562,2048,-74,22,-29
515809,-99218,-781,1562,2053,-74,22,-29
515811,-99218,-781,1562,2051,-74,22,-29
515813,-99218,-781,1562,2051,-73,22,-29
515815,-99218,-781,1562,2053,-73,22,-29
515817,-99218,0,1562,2053,-73,22,-29
515819,-99218,0,1562,2041,-73,22,-30
515821,-99218,0,1562,2051,-73,22,-30
515823,-99218,0,1562,2048,-73,22,-30
515825,-99218,0,1562,2046,-72,22,-30
515827,-98437,0,2343,2052,-72,22,-30
515829,-98437,0,2343,2048,-72,21,-30
515831,-98437,0,2343,2053,-72,21,-29
515833,-98437,0,2343,2045,-72,22,-30
515835,-98437,0,2343,2051,-72,22,-30
515837,-99218,-781,2343,2051,-72,21,-30
515839,-99218,-781,2343,2051,-72,21,-30
515841,-99218,-781,2343,2056,-71,21,-30
515843,-99218,-781,2343,2046,-71,21,-30
515845,-99218,-781,2343,2045,-71,21,-30
515847,-98437,0,2343,2057,-71,21,-30
515849,-98437,0,2343,2056,-71,21,-29
515851,-98437,0,2343,2046,-71,21,-30
515853,-98437,0,2343,2041,-70,21,-30
515855,-98437,0,2343,2046,-70,21,-30
515857,-98437,-781,1562,2045,-70,21,-30
515859,-98437,-781,1562,2056,-70,21,-30
515861,-98437,-781,1562,2043,-69,21,-30
515863,-98437,-781,1562,2051,-69,20,-30
515865,-98437,-781,1562,2057,-69,20,-30
515867,-99218,-781,3125,2049,-69,20,-30
515869,-99218,-781,3125,2061,-69,20,-30
515871,-99218,-781,3125,2048,-68,20,-30
515873,-99218,-781,3125,2054,-68,20,-30
515875,-99218,-781,3125,2042,-68,20,-30
515877,-98437,-781,781,2051,-68,20,-30
515879,-98437,-781,781,2047,-68,20,-30
515881,-98437,-781,781,2045,-68,20,-30
515883,-98437,-781,781,2052,-68,21,-31
515885,-98437,-781,781,2057,-67,21,-30
515887,-98437,-781,2343,2049,-67,21,-31
515889,-98437,-781,2343,2049,-67,21,-30
515891,-98437,-781,2343,2047,-67,20,-30
515893,-98437,-781,2343,2051,-67,20,-31
515895,-98437,-781,2343,2046,-66,20,-31
515897,-98437,0,2343,2046,-66,20,-31
515899,-98437,0,2343,2051,-66,20,-31
515901,-98437,0,2343,2047,-66,20,-31
515903,-98437,0,2343,2045,-66,20,-31
515905,-98437,0,2343,2051,-65,20,-31
515907,-98437,-781,1562,2046,-65,20,-31
515909,-98437,-781,1562,2045,-65,19,-31
515911,-98437,-781,1562,2046,-65,19,-31
515913,-98437,-781,1562,2045,-64,19,-31
515915,-98437,-781,1562,2046,-64,19,-31
515917,-98437,-781,3125,2056,-64,20,-31
515919,-98437,-781,3125,2051,-63,19,-31
515921,-98437,-781,3125,2042,-63,19,-31
515923,-98437,-781,3125,2051,-63,19,-31
515925,-98437,-781,3125,2043,-63,19,-31
515927,-97656,-781,3125,2052,-62,19,-31
515929,-97656,-781,3125,2049,-62,20,-31
515931,-97656,-781,3125,2052,-62,19,-30
515933,-97656,-781,3125,2053,-62,19,-31
515935,-97656,-781,3125,2054,-62,19,-31
515937,-97656,-781,3125,2047,-61,19,-31
515939,-98437,-781,3125,2045,-61,19,-31
515941,-98437,-781,3125,2052,-61,19,-31
515943,-98437,-781,3125,2041,-61,19,-31
515945,-98437,-781,3125,2040,-61,19,-31
515947,-98437,-781,3125,2043,-60,19,-31
515949,-97656,0,2343,2045,-60,19,-31
515951,-97656,0,2343,2045,-60,19,-31
515953,-97656,0,2343,2045,-60,19,-31
515955,-97656,0,2343,2049,-60,19,-31
515957,-97656,0,2343,2047,-60,19,-31
515959,-98437,-781,1562,2051,-59,19,-31
515961,-98437,-781,1562,2051,-59,19,-31
515963,-98437,-781,1562,2046,-59,20,-31
515965,-98437,-781,1562,2049,-59,19,-31
515967,-98437,-781,1562,2042,-59,19,-31
515969,-96875,-781,1562,2052,-58,19,-31
515971,-96875,-781,1562,2051,-58,19,-31
515973,-96875,-781,1562,2052,-58,19,-31
515976,-96875,-781,1562,2061,-58,19,-31
515977,-96875,-781,1562,2049,-58,19,-31
515979,-98437,-781,3125,2046,-58,19,-31
515981,-98437,-781,3125,2056,-58,19,-31
515983,-98437,-781,3125,2057,-57,19,-31
515985,-98437,-781,3125,2046,-57,19,-31
515987,-98437,-781,3125,2049,-57,18,-31
515989,-98437,781,2343,2045,-56,19,-31
515991,-98437,781,2343,2057,-56,19,-31
515993,-98437,781,2343,2054,-56,19,-31
515995,-98437,781,2343,2049,-55,19,-31
515997,-98437,781,2343,2043,-55,19,-31
515999,-98437,-2343,3906,2049,-55,19,-31
516001,-98437,-2343,3906,2043,-55,19,-32
516003,-98437,-2343,3906,2053,-55,19,-31
516005,-98437,-2343,3906,2048,-54,19,-32
516007,-98437,-2343,3906,2042,-54,19,-32
516009,-97656,-781,781,2057,-54,19,-32
516011,-97656,-781,781,2041,-54,19,-32
516013,-97656,-781,781,2048,-53,19,-32
516015,-97656,-781,781,2047,-53,19,-32
516017,-97656,-781,781,2046,-53,18,-32
516019,-97656,-781,2343,2047,-53,18,-32
516021,-97656,-781,2343,2056,-52,19,-32
516023,-97656,-781,2343,2061,-52,19,-32
516025,-97656,-781,2343,2049,-52,19,-32
516027,-97656,-781,2343,2061,-52,19,-32
516029,-97656,-781,2343,2049,-51,19,-32
516031,-97656,-781,2343,2053,-51,19,-32
516033,-97656,-781,2343,2059,-51,19,-32
516035,-97656,-781,2343,2042,-51,18,-32
516037,-97656,-781,2343,2043,-50,18,-32
516039,-98437,-781,2343,2051,-50,18,-32
516042,-98437,-781,2343,2046,-50,18,-32
516043,-98437,-781,2343,2049,-50,18,-32
516045,-98437,-781,2343,2051,-49,18,-32
516047,-98437,-781,2343,2051,-49,18,-32
516049,-98437,-781,1562,2058,-49,18,-32
516051,-98437,-781,1562,2049,-48,18,-32
516053,-98437,-781,1562,2051,-48,18,-32
516055,-98437,-781,1562,2051,-48,18,-32
516057,-98437,-781,1562,2046,-48,18,-32
516059,-97656,-781,3125,2049,-47,18,-32
516061,-97656,-781,3125,2043,-47,18,-32
516063,-97656,-781,3125,2041,-47,19,-32
516065,-97656,-781,3125,2052,-47,18,-32
516067,-97656,-781,3125,2041,-47,18,-32
516069,-97656,-1562,1562,2048,-46,18,-32
516071,-97656,-1562,1562,2051,-46,18,-32
516073,-97656,-1562,1562,2041,-46,18,-32
516075,-97656,-1562,1562,2047,-45,18,-32
516077,-97656,-1562,1562,2049,-45,18,-32
516079,-98437,-1562,1562,2047,-45,18,-32
516081,-98437,-1562,1562,2048,-45,18,-32
516083,-98437,-1562,1562,2056,-45,18,-32
516085,-98437,-1562,1562,2052,-45,18,-32
516087,-98437,-1562,1562,2054,-44,18,-32
516089,-98437,-781,781,2051,-44,18,-32
516091,-98437,-781,781,2047,-44,18,-32
516093,-98437,-781,781,2051,-44,18,-31
516095,-98437,-781,781,2051,-44,18,-32
516097,-98437,-781,781,2043,-44,18,-32
516099,-98437,-781,2343,2042,-44,18,-32
516102,-98437,-781,2343,2051,-44,19,-32
516103,-98437,-781,2343,2049,-43,19,-32
516105,-98437,-781,2343,2053,-43,19,-32
516107,-98437,-781,2343,2051,-43,19,-32
516109,-98437,-781,2343,2058,-43,19,-32
516111,-99218,-781,1562,2049,-43,19,-32
516113,-99218,-781,1562,2043,-43,19,-32
516115,-99218,-781,1562,2040,-42,19,-32
516117,-99218,-781,1562,2051,-42,19,-32
516119,-99218,-781,1562,2049,-42,19,-32
516121,-99218,-781,1562,2046,-42,19,-32
516123,-99218,-781,1562,2043,-42,19,-32
516125,-99218,-781,1562,2048,-41,19,-32
516127,-99218,-781,1562,2040,-41,19,-32
516129,-99218,-781,1562,2047,-41,19,-32
516131,-98437,-781,781,2049,-41,19,-32
516133,-98437,-781,781,2049,-41,19,-32
516135,-98437,-781,781,2042,-41,20,-32
516137,-98437,-781,781,2048,-40,20,-32
516139,-98437,-781,781,2045,-40,20,-32
516141,-97656,-1562,1562,2051,-40,20,-32
516143,-97656,-1562,1562,2042,-40,20,-32
516145,-97656,-1562,1562,2042,-40,20,-32
516147,-97656,-1562,1562,2053,-40,20,-32
516149,-97656,-1562,1562,2051,-39,20,-32
516151,-100000,-781,1562,2051,-39,21,-32
516153,-100000,-781,1562,2057,-39,21,-32
516155,-100000,-781,1562,2052,-39,21,-32
516157,-100000,-781,1562,2042,-39,21,-32
516160,-100000,-781,1562,2049,-39,21,-32
516161,-100000,-781,781,2046,-39,21,-32
516163,-100000,-781,781,2054,-38,21,-32
516165,-100000,-781,781,2058,-38,21,-32
516167,-100000,-781,781,2046,-38,21,-32
516169,-100000,-781,781,2047,-38,21,-32
516171,-99218,-1562,781,2041,-38,21,-32
516173,-99218,-1562,781,2047,-38,21,-32
516175,-99218,-1562,781,2057,-38,21,-32
516177,-99218,-1562,781,2051,-38,21,-32
516179,-99218,-1562,781,2051,-38,21,-32
516181,-100000,0,1562,2042,-38,21,-32
516183,-100000,0,1562,2053,-38,21,-32
516185,-100000,0,1562,2049,-38,21,-32
516187,-100000,0,1562,2053,-38,21,-32
516189,-100000,0,1562,2053,-37,21,-32
516191,-99218,-1562,-781,2057,-37,22,-32
516193,-99218,-1562,-781,2046,-37,22,-32
516195,-99218,-1562,-781,2053,-37,22,-32
516197,-99218,-1562,-781,2045,-37,22,-32
516199,-99218,-1562,-781,2046,-37,22,-32
516201,-99218,-1562,0,2043,-37,22,-32
516203,-99218,-1562,0,2043,-37,22,-32
516205,-99218,-1562,0,2056,-37,22,-32
516207,-99218,-1562,0,2043,-36,22,-32
516209,-99218,-1562,0,2041,-36,22,-32
516211,-100000,-781,781,2045,-36,22,-32
516213,-100000,-781,781,2047,-36,22,-32
516215,-100000,-781,781,2056,-36,22,-32
516217,-100000,-781,781,2051,-36,22,-32
516219,-100000,-781,781,2051,-36,22,-32
516221,-100000,-1562,1562,2051,-36,22,-32
516223,-100000,-1562,1562,2053,-36,22,-32
516225,-100000,-1562,1562,2041,-36,22,-32
516228,-100000,-1562,1562,2049,-36,22,-32
516229,-100000,-1562,1562,2048,-36,23,-32
516231,-100000,-1562,-781,2043,-36,23,-32
516233,-100000,-1562,-781,2056,-36,23,-32
516235,-100000,-1562,-781,2058,-36,23,-32
516237,-100000,-1562,-781,2059,-36,23,-32
516239,-100000,-1562,-781,2054,-35,23,-32
516241,-100000,-1562,781,2040,-35,23,-32
516243,-100000,-1562,781,2045,-35,23,-32
516245,-100000,-1562,781,2051,-35,23,-32
516247,-100000,-1562,781,2051,-35,23,-32
516249,-100000,-1562,781,2046,-35,23,-32
516251,-99218,-781,0,2045,-35,24,-32
516253,-99218,-781,0,2058,-35,24,-32
516255,-99218,-781,0,2046,-35,24,-32
516257,-99218,-781,0,2056,-35,24,-32
516259,-99218,-781,0,2041,-35,24,-32
516261,-100000,-1562,-781,2056,-34,24,-32
516263,-100000,-1562,-781,2045,-35,24,-33
516265,-100000,-1562,-781,2051,-35,24,-33
516267,-100000,-1562,-781,2043,-34,24,-33
516269,-100000,-1562,-781,2052,-34,25,-33
516271,-100000,-1562,-781,2053,-34,25,-33
516273,-100000,-1562,-781,2048,-34,25,-33
516275,-100000,-1562,-781,2040,-34,25,-33
516277,-100000,-1562,-781,2052,-34,25,-33
516279,-100000,-1562,-781,2049,-34,25,-33
516281,-100000,-1562,-781,2047,-34,25,-33
516283,-100000,-781,-781,2036,-35,26,-33
516285,-100000,-781,-781,2053,-35,26,-32
516287,-100000,-781,-781,2047,-35,25,-32
516289,-100000,-781,-781,2052,-35,26,-33
516291,-100000,-781,-781,2048,-35,26,-33
516293,-100000,-1562,0,2056,-35,26,-33
516295,-100000,-1562,0,2041,-35,26,-32
516297,-100000,-1562,0,2053,-35,26,-32
516299,-100000,-1562,0,2048,-35,26,-32
516301,-100000,-1562,0,2061,-35,26,-32
516303,-100781,-1562,-1562,2059,-35,26,-32
516305,-100781,-1562,-1562,2061,-35,26,-32
516307,-100781,-1562,-1562,2046,-35,26,-32
516309,-100781,-1562,-1562,2052,-35,26,-32
516311,-100781,-1562,-1562,2047,-35,26,-32
516313,-100000,-781,0,2048,-35,26,-32
516315,-100000,-781,0,2038,-35,27,-32
516317,-100000,-781,0,2035,-35,27,-32
516319,-100000,-781,0,2042,-35,27,-32
516321,-100000,-781,0,2046,-36,27,-32
516323,-100000,-781,-1562,2056,-36,27,-32
516325,-100000,-781,-1562,2057,-36,27,-32
516327,-100000,-781,-1562,2047,-36,27,-32
516329,-100000,-781,-1562,2048,-36,27,-32
516331,-100000,-781,-1562,2052,-36,27,-32
516333,-100781,-781,781,2040,-36,27,-32
516335,-100781,-781,781,2046,-36,27,-32
516337,-100781,-781,781,2054,-35,27,-32
516339,-100781,-781,781,2054,-36,27,-32
516341,-100781,-781,781,2051,-36,27,-31
516343,-100000,0,-781,2040,-36,27,-32
516345,-100000,0,-781,2043,-36,27,-32
516347,-100000,0,-781,2049,-36,27,-31
516349,-100000,0,-781,2045,-36,27,-31
516351,-100000,0,-781,2042,-36,27,-31
516353,-100781,-781,0,2040,-36,27,-31
516355,-100781,-781,0,2051,-36,27,-31
516357,-100781,-781,0,2049,-36,27,-31
516359,-100781,-781,0,2051,-36,27,-32
516361,-100781,-781,0,2045,-36,27,-31
516364,-100000,-1562,0,2043,-36,27,-31
516365,-100000,-1562,0,2042,-36,27,-31
516367,-100000,-1562,0,2058,-36,27,-31
516369,-100000,-1562,0,2052,-36,27,-31
516371,-100000,-1562,0,2052,-37,27,-31
516373,-100781,-781,0,2042,-37,28,-31
516375,-100781,-781,0,2047,-37,28,-31
516377,-100781,-781,0,2042,-37,28,-31
516379,-100781,-781,0,2051,-37,28,-31
516381,-100781,-781,0,2043,-37,28,-31
516383,-100781,-1562,-781,2051,-37,28,-32
516385,-100781,-1562,-781,2045,-37,28,-32
516387,-100781,-1562,-781,2041,-37,28,-32
516389,-100781,-1562,-781,2046,-37,28,-32
516391,-100781,-1562,-781,2041,-37,29,-32
516393,-100000,-781,-781,2051,-37,28,-32
516395,-100000,-781,-781,2057,-37,29,-32
516397,-100000,-781,-781,2049,-38,29,-32
516399,-100000,-781,-781,2041,-38,29,-32
516401,-100000,-781,-781,2041,-38,29,-32
516403,-100000,0,-781,2046,-38,29,-32
516405,-100000,0,-781,2051,-38,29,-32
516407,-100000,0,-781,2045,-38,29,-32
516409,-100000,0,-781,2046,-38,29,-32
516411,-100000,0,-781,2051,-38,29,-32
516413,-100781,-781,-781,2040,-38,29,-32
516415,-100781,-781,-781,2041,-38,29,-32
516417,-100781,-781,-781,2052,-39,29,-32
516419,-100781,-781,-781,2048,-39,29,-32
516421,-100781,-781,-781,2048,-39,29,-32
516423,-100000,0,-781,2046,-39,29,-32
516425,-100000,0,-781,2042,-39,29,-32
516427,-100000,0,-781,2053,-39,29,-32
516429,-100000,0,-781,2053,-39,29,-32
516431,-100000,0,-781,2053,-39,29,-32
516433,-100000,-781,0,2059,-39,29,-32
516435,-100000,-781,0,2051,-39,29,-32
516437,-100000,-781,0,2051,-39,29,-32
516439,-100000,-781,0,2043,-39,29,-31
516441,-100000,-781,0,2061,-39,29,-31
516443,-100781,0,-781,2046,-39,29,-31
516445,-100781,0,-781,2051,-39,29,-31
516447,-100781,0,-781,2051,-39,29,-31
516449,-100781,0,-781,2045,-39,29,-31
516451,-100781,0,-781,2043,-39,29,-31
516453,-100000,-781,0,2048,-40,29,-31
516455,-100000,-781,0,2052,-40,29,-31
516457,-100000,-781,0,2049,-39,29,-31
516459,-100000,-781,0,2051,-40,29,-31
516461,-100000,-781,0,2046,-40,29,-31
516463,-100000,-781,0,2053,-40,29,-31
516465,-100000,0,-781,2042,-40,29,-31
516467,-100000,0,-781,2056,-40,29,-31
516469,-100000,0,-781,2043,-40,29,-31
516471,-100000,0,-781,2045,-40,29,-31
516473,-100000,0,-781,2043,-40,29,-30
516475,-100000,0,-781,2051,-40,29,-31
516477,-100000,0,-781,2045,-40,29,-31
516479,-100000,0,-781,2054,-40,29,-30
516481,-100000,0,-781,2051,-41,29,-30
516483,-100000,0,-781,2049,-41,29,-30
516485,-100781,0,-781,2052,-41,29,-30
516487,-100781,0,-781,2041,-41,29,-30
516489,-100781,0,-781,2054,-41,29,-30
516491,-100781,0,-781,2043,-41,29,-30
516493,-100781,0,-781,2049,-41,29,-30
516495,-100000,0,-1562,2040,-41,29,-30
516498,-100000,0,-1562,2053,-41,29,-30
516499,-100000,0,-1562,2054,-41,29,-30
516501,-100000,0,-1562,2049,-41,29,-30
516503,-100000,0,-1562,2058,-41,29,-30
516505,-100000,0,0,2041,-41,29,-30
516507,-100000,0,0,2054,-41,29,-30
516509,-100000,0,0,2054,-42,29,-30
516511,-100000,0,0,2051,-42,29,-30
516513,-100000,0,0,2047,-42,29,-29
516515,-99218,0,781,2048,-42,29,-29
516517,-99218,0,781,2049,-42,29,-30
516519,-99218,0,781,2046,-42,29,-30
516521,-99218,0,781,2043,-42,29,-30
516523,-99218,0,781,2052,-42,29,-30
516525,-100000,0,-781,2049,-42,29,-30
516527,-100000,0,-781,2051,-42,30,-30
516529,-100000,0,-781,2048,-42,30,-29
516531,-100000,0,-781,2046,-42,30,-29
516533,-100000,0,-781,2042,-42,30,-29
516535,-100000,-781,781,2045,-42,30,-29
516537,-100000,-781,781,2048,-42,30,-29
516539,-100000,-781,781,2049,-42,30,-30
516541,-100000,-781,781,2051,-42,30,-29
516543,-100000,-781,781,2047,-42,30,-29
516545,-100000,0,781,2040,-42,30,-29
516547,-100000,0,781,2041,-43,30,-29
516549,-100000,0,781,2042,-43,30,-29
516551,-100000,0,781,2047,-43,30,-29
516553,-100000,0,781,2047,-43,30,-29
516555,-100000,781,0,2043,-43,30,-29
516557,-100000,781,0,2046,-43,30,-29
516559,-100000,781,0,2047,-43,30,-29
516561,-100000,781,0,2048,-43,30,-29
516563,-100000,781,0,2045,-43,30,-29
516565,-99218,781,0,2049,-43,30,-29
516567,-99218,781,0,2051,-43,30,-29
516569,-99218,781,0,2043,-43,30,-29
516571,-99218,781,0,2052,-44,30,-28
516573,-99218,781,0,2061,-44,30,-28
516575,-100000,0,-781,2045,-44,30,-28
516577,-100000,0,-781,2049,-44,30,-28
516579,-100000,0,-781,2047,-43,30,-28
516581,-100000,0,-781,2054,-43,30,-28
516583,-100000,0,-781,2041,-43,30,-28
516585,-100000,0,0,2053,-43,30,-28
516587,-100000,0,0,2053,-43,29,-28
516589,-100000,0,0,2051,-44,29,-28
516591,-100000,0,0,2049,-43,29,-28
516593,-100000,0,0,2053,-43,29,-28
516595,-99218,0,781,2048,-43,29,-28
516597,-99218,0,781,2047,-43,29,-28
516599,-99218,0,781,2059,-43,29,-28
516601,-99218,0,781,2057,-43,29,-28
516603,-99218,0,781,2043,-43,29,-28
516605,-99218,0,1562,2049,-43,29,-28
516607,-99218,0,1562,2046,-43,29,-28
516609,-99218,0,1562,2058,-43,29,-28
516611,-99218,0,1562,2047,-43,28,-28
516613,-99218,0,1562,2045,-43,28,-28
516615,-99218,0,781,2052,-43,28,-28
516617,-99218,0,781,2053,-44,28,-28
516619,-99218,0,781,2038,-43,28,-28
516621,-99218,0,781,2042,-43,28,-28
516623,-99218,0,781,2045,-43,28,-28
516625,-99218,0,781,2046,-43,28,-28
516627,-99218,0,0,2048,-43,28,-27
516629,-99218,0,0,2049,-43,28,-27
516631,-99218,0,0,2048,-43,29,-27
516633,-99218,0,0,2051,-43,29,-27
516635,-99218,0,0,2041,-43,29,-27
516637,-99218,-781,781,2054,-43,29,-27
516639,-99218,-781,781,2043,-43,29,-27
516641,-99218,-781,781,2053,-43,29,-27
516643,-99218,-781,781,2046,-43,29,-27
516645,-99218,-781,781,2048,-43,29,-28
516647,-99218,0,1562,2046,-43,29,-28
516650,-99218,0,1562,2051,-43,29,-28
516651,-99218,0,1562,2051,-43,29,-28
516653,-99218,0,1562,2047,-42,29,-28
516655,-99218,0,1562,2058,-42,28,-28
516657,-98437,-781,781,2047,-42,28,-28
516659,-98437,-781,781,2048,-42,29,-28
516661,-98437,-781,781,2051,-43,28,-28
516663,-98437,-781,781,2045,-43,28,-28
516665,-98437,-781,781,2051,-43,29,-28
516667,-98437,0,781,2047,-42,29,-27
516669,-98437,0,781,2042,-42,29,-27
516671,-98437,0,781,2057,-42,29,-27
516673,-98437,0,781,2046,-42,29,-27
516675,-98437,0,781,2053,-42,29,-27
516677,-98437,0,3125,2049,-42,29,-27
516679,-98437,0,3125,2046,-42,29,-27
516681,-98437,0,3125,2053,-42,29,-27
516683,-98437,0,3125,2046,-42,29,-27
516685,-98437,0,3125,2049,-42,29,-27
516687,-98437,781,1562,2046,-42,29,-27
516689,-98437,781,1562,2054,-42,29,-27
516691,-98437,781,1562,2051,-42,29,-27
516693,-98437,781,1562,2056,-42,29,-27
516695,-98437,781,1562,2052,-42,29,-27
516697,-97656,0,1562,2053,-42,29,-27
516699,-97656,0,1562,2048,-42,29,-27
516701,-97656,0,1562,2048,-42,29,-27
516703,-97656,0,1562,2049,-41,29,-26
516705,-97656,0,1562,2046,-41,29,-26
516707,-98437,-781,1562,2047,-41,29,-26
516709,-98437,-781,1562,2047,-41,29,-26
516711,-98437,-781,1562,2042,-41,29,-26
516713,-98437,-781,1562,2046,-41,29,-26
516715,-98437,-781,1562,2048,-41,29,-26
516717,-97656,-781,781,2047,-41,29,-26
516719,-97656,-781,781,2056,-41,29,-26
516721,-97656,-781,781,2046,-41,29,-26
516723,-97656,-781,781,2049,-40,29,-27
516725,-97656,-781,781,2053,-40,29,-26
516727,-96875,-781,1562,2052,-40,29,-26
516729,-96875,-781,1562,2052,-40,29,-26
516744,-97656,-781,781,2043,-39,29,-26
516746,-97656,-781,781,2052,-39,29,-26
516747,-97656,0,1562,2059,-39,29,-26
516749,-97656,0,1562,2046,-39,30,-26
516750,-97656,0,1562,2048,-39,30,-26
516752,-97656,0,1562,2062,-39,30,-26
516753,-97656,0,1562,2061,-39,30,-26
516755,-97656,0,1562,2048,-39,30,-26
516756,-97656,0,1562,2053,-39,30,-26
516758,-97656,0,781,2049,-39,30,-25
516759,-97656,0,781,2045,-39,30,-25
516761,-97656,0,781,2051,-39,30,-25
516762,-97656,0,781,2046,-39,30,-25
516764,-97656,0,781,2045,-39,30,-25
516765,-97656,0,781,2043,-39,31,-25
516767,-97656,0,781,2047,-39,31,-25
516768,-96875,-781,1562,2045,-38,31,-25
516769,-96875,-781,1562,2061,-38,31,-25
516771,-96875,-781,1562,2051,-38,31,-25
516772,-96875,-781,1562,2052,-38,31,-25
516774,-96875,-781,1562,2043,-37,31,-25
516775,-96875,-781,1562,2056,-37,31,-25
516777,-96875,-781,1562,2062,-37,31,-25
516778,-97656,0,1562,2046,-37,31,-25
516780,-97656,0,1562,2045,-37,31,-25
516781,-97656,0,1562,2049,-37,31,-25
516783,-97656,0,1562,2047,-37,32,-25
516785,-97656,0,1562,2045,-37,32,-25
516788,-96875,-781,1562,2046,-36,32,-25
516789,-96875,-781,1562,2061,-36,32,-25
516791,-96875,-781,1562,2053,-36,32,-25
516793,-96875,-781,1562,2051,-36,32,-25
516795,-96875,-781,1562,2054,-36,32,-25
516797,-96875,-781,1562,2045,-35,32,-25
516799,-96875,-781,1562,2058,-35,32,-25
516801,-96875,-781,1562,2048,-35,32,-24
516803,-96875,-781,1562,2041,-35,32,-24
516805,-96875,-781,1562,2049,-35,33,-25
516807,-96875,-781,1562,2047,-34,33,-25
516809,-96875,0,1562,2054,-34,33,-25
516811,-96875,0,1562,2049,-34,33,-25
516813,-96875,0,1562,2049,-34,33,-25
516815,-96875,0,1562,2040,-34,33,-25
516817,-96875,0,1562,2042,-33,33,-25
516819,-96875,-781,2343,2045,-33,33,-25
516821,-96875,-781,2343,2041,-33,33,-25
516823,-96875,-781,2343,2046,-33,33,-25
516825,-96875,-781,2343,2051,-33,33,-25
516827,-96875,-781,2343,2043,-33,33,-25
516829,-97656,-1562,2343,2046,-33,33,-25
516831,-97656,-1562,2343,2058,-32,33,-25
516833,-97656,-1562,2343,2053,-32,33,-25
516835,-97656,-1562,2343,2041,-32,33,-25
516837,-97656,-1562,2343,2049,-32,33,-25
516839,-97656,-1562,0,2047,-32,33,-25
516841,-97656,-1562,0,2045,-32,33,-25
516843,-97656,-1562,0,2041,-31,33,-25
516845,-97656,-1562,0,2042,-31,34,-25
516847,-97656,-1562,0,2049,-31,34,-25
516849,-97656,0,1562,2048,-30,34,-25
516851,-97656,0,1562,2053,-30,34,-25
516853,-97656,0,1562,2046,-30,34,-25
516855,-97656,0,1562,2061,-30,34,-25
516857,-97656,0,1562,2042,-30,34,-25
516859,-96875,-2343,2343,2048,-30,34,-24
516861,-96875,-2343,2343,2053,-30,34,-25
516863,-96875,-2343,2343,2051,-29,34,-25
516865,-96875,-2343,2343,2053,-29,34,-24
516867,-96875,-2343,2343,2046,-29,34,-24
516869,-96093,-1562,781,2053,-29,34,-25
516871,-96093,-1562,781,2041,-29,34,-25
516873,-96093,-1562,781,2058,-29,34,-25
516875,-96093,-1562,781,2056,-29,34,-25
516877,-96093,-1562,781,2051,-29,34,-24
516879,-97656,-1562,1562,2056,-29,34,-24
516906,-97656,-781,781,2049,-27,35,-24
516908,-97656,-781,781,2059,-27,35,-24
516909,-98437,0,-1562,2049,-27,35,-24
516911,-98437,0,-1562,2041,-27,35,-24
516912,-98437,0,-1562,2045,-27,35,-24
516914,-98437,0,-1562,2046,-27,35,-24
516915,-98437,0,-1562,2047,-26,35,-24
516917,-98437,0,-1562,2047,-26,35,-24
516918,-98437,0,-1562,2051,-26,35,-24
516920,-98437,-781,781,2051,-26,36,-25
516921,-98437,-781,781,2052,-26,36,-25
516923,-98437,-781,781,2045,-26,36,-25
516924,-98437,-781,781,2061,-26,36,-25
516926,-98437,-781,781,2051,-26,36,-25
516927,-98437,-781,781,2037,-26,36,-25
516929,-98437,-1562,0,2038,-26,36,-25
516930,-98437,-1562,0,2056,-26,36,-25
516932,-98437,-1562,0,2061,-26,36,-25
516933,-98437,-1562,0,2051,-26,36,-25
516935,-98437,-1562,0,2054,-26,36,-25
516936,-98437,-1562,0,2048,-26,36,-25
516938,-98437,-1562,0,2042,-26,36,-25
516939,-99218,-1562,0,2051,-26,36,-25
516941,-99218,-1562,0,2051,-26,36,-25
516942,-99218,-1562,0,2041,-26,36,-25
516944,-99218,-1562,0,2045,-26,36,-25
516945,-99218,-1562,0,2059,-26,36,-25
516948,-99218,-1562,0,2053,-25,36,-25
516950,-99218,-1562,0,2051,-25,36,-25
516951,-99218,-1562,0,2042,-25,36,-25
516953,-99218,-1562,0,2053,-25,36,-25
516955,-99218,-1562,0,2048,-25,36,-25
516956,-99218,-1562,0,2059,-25,36,-25
516957,-99218,-1562,0,2047,-25,36,-25
516959,-99218,-1562,0,2053,-25,36,-25
516960,-100000,781,0,2051,-25,36,-25
516962,-100000,781,0,2051,-25,36,-24
516963,-100000,781,0,2056,-25,36,-24
516965,-100000,781,0,2046,-25,36,-24
516966,-100000,781,0,2054,-25,36,-24
516968,-100000,781,0,2049,-25,36,-24
516969,-100000,0,0,2056,-25,36,-24
516971,-100000,0,0,2046,-25,36,-24
516972,-100000,0,0,2046,-25,36,-24
516974,-100000,0,0,2046,-25,36,-24
516975,-100000,0,0,2046,-25,37,-24
516977,-100000,0,0,2048,-25,37,-24
516978,-100000,0,0,2051,-25,37,-24
516980,-100781,0,0,2046,-25,37,-24
516981,-100781,0,0,2048,-25,37,-24
516983,-100781,0,0,2049,-25,37,-25
516984,-100781,0,0,2043,-25,37,-25
516986,-100781,0,0,2046,-25,37,-25
516987,-100781,0,0,2051,-25,37,-25
516989,-100781,0,0,2043,-25,37,-25
516991,-100000,-781,-781,2053,-25,37,-25
516993,-100000,-781,-781,2045,-25,38,-24
516995,-100000,-781,-781,2057,-25,38,-24
516997,-100000,-781,-781,2053,-25,38,-24
516999,-100000,-781,-781,2046,-25,38,-24
517001,-99218,-781,-1562,2053,-25,38,-24
517003,-99218,-781,-1562,2043,-25,38,-24
517005,-99218,-781,-1562,2051,-25,39,-24
517007,-99218,-781,-1562,2040,-25,39,-24
517009,-99218,-781,-1562,2037,-25,39,-24
517011,-100000,-781,-2343,2042,-26,38,-24
517014,-100000,-781,-2343,2052,-26,38,-24
517015,-100000,-781,-2343,2049,-26,39,-24
517017,-100000,-781,-2343,2052,-26,39,-24
517019,-100000,-781,-2343,2052,-26,39,-24
517021,-100781,-781,-2343,2056,-26,39,-24
517023,-100781,-781,-2343,2042,-26,39,-24
517025,-100781,-781,-2343,2062,-26,39,-24
517027,-100781,-781,-2343,2046,-26,40,-24
517029,-100781,-781,-2343,2052,-27,40,-24
517031,-101562,-781,-1562,2045,-27,40,-24
517033,-101562,-781,-1562,2051,-27,40,-24
517035,-101562,-781,-1562,2045,-27,40,-24
517037,-101562,-781,-1562,2043,-27,40,-24
517039,-101562,-781,-1562,2049,-27,40,-24
517041,-100781,-781,-2343,2051,-27,40,-24
517043,-100781,-781,-2343,2057,-27,40,-24
517045,-100781,-781,-2343,2053,-27,40,-24
517047,-100781,-781,-2343,2048,-27,40,-24
517049,-100781,-781,-2343,2045,-27,40,-24
517051,-101562,-781,-3125,2053,-27,39,-24
517053,-101562,-781,-3125,2061,-28,39,-24
517055,-101562,-781,-3125,2041,-28,39,-24
517057,-101562,-781,-3125,2037,-28,39,-24
517059,-101562,-781,-3125,2043,-28,39,-24
517061,-101562,-781,-2343,2049,-28,40,-24
517063,-101562,-781,-2343,2053,-29,40,-24
517065,-101562,-781,-2343,2042,-29,39,-24
517067,-101562,-781,-2343,2051,-29,39,-24
517069,-101562,-781,-2343,2051,-29,39,-24
517071,-101562,-781,-3906,2046,-29,39,-24
517073,-101562,-781,-3906,2047,-30,39,-24
517075,-101562,-781,-3906,2051,-30,39,-24
517077,-101562,-781,-3906,2049,-30,39,-24
517079,-101562,-781,-3906,2051,-30,39,-24
517081,-102343,-781,-3125,2048,-30,39,-24
517083,-102343,-781,-3125,2056,-30,39,-24
517085,-102343,-781,-3125,2053,-31,39,-24
517087,-102343,-781,-3125,2059,-31,39,-24
517089,-102343,-781,-3125,2049,-31,39,-24
517091,-102343,-781,-5468,2049,-31,39,-24
517093,-102343,-781,-5468,2049,-31,39,-24
517095,-102343,-781,-5468,2046,-32,39,-24
517097,-102343,-781,-5468,2051,-32,39,-24
517099,-102343,-781,-5468,2057,-32,39,-24
517101,-102343,-1562,-4687,2058,-33,39,-24
517103,-102343,-1562,-4687,2049,-33,39,-24
517105,-102343,-1562,-4687,2049,-33,39,-24
517107,-102343,-1562,-4687,2062,-34,39,-24
517109,-102343,-1562,-4687,2048,-34,40,-24
517111,-103906,0,-4687,2054,-34,40,-24
517113,-103906,0,-4687,2052,-34,40,-24
517115,-103906,0,-4687,2043,-35,40,-24
517117,-103906,0,-4687,2047,-35,40,-24
517119,-103906,0,-4687,2042,-35,40,-24
517121,-103125,-781,-3906,2049,-35,40,-24
517123,-103125,-781,-3906,2051,-36,40,-25
517125,-103125,-781,-3906,2052,-36,40,-25
517127,-103125,-781,-3906,2051,-36,40,-25
517129,-103125,-781,-3906,2056,-37,40,-25
517131,-103125,-1562,-4687,2049,-37,40,-25
517133,-103125,-1562,-4687,2046,-37,40,-25
517136,-103125,-1562,-4687,2059,-38,40,-25
517137,-103125,-1562,-4687,2049,-38,40,-26
517139,-103125,-1562,-4687,2043,-38,40,-26
517141,-102343,-781,-4687,2052,-39,40,-25
517143,-102343,-781,-4687,2051,-39,40,-26
517145,-102343,-781,-4687,2046,-39,40,-26
517147,-102343,-781,-4687,2051,-40,40,-25
517149,-102343,-781,-4687,2061,-40,41,-25
517151,-102343,-781,-4687,2042,-40,41,-25
517153,-103125,-781,-5468,2051,-40,41,-25
517155,-103125,-781,-5468,2051,-41,41,-25
517157,-103125,-781,-5468,2049,-41,41,-25
517159,-103125,-781,-5468,2040,-41,40,-25
517161,-103125,-781,-5468,2043,-42,40,-25
517163,-103906,-781,-4687,2048,-42,40,-25
517165,-103906,-781,-4687,2051,-42,40,-25
517167,-103906,-781,-4687,2053,-42,40,-26
517169,-103906,-781,-4687,2045,-43,40,-26
517171,-103906,-781,-4687,2046,-43,40,-26
517173,-103906,-781,-4687,2051,-43,40,-26
517175,-103906,-781,-4687,2051,-44,40,-26
517177,-103906,-781,-4687,2041,-44,40,-26
517179,-103906,-781,-4687,2046,-45,40,-26
517181,-103906,-781,-4687,2047,-45,40,-26
517183,-103906,-781,-4687,2056,-46,40,-26
517185,-103906,-781,-4687,2051,-46,39,-26
517187,-103906,-781,-4687,2051,-46,39,-26
517189,-103906,-781,-4687,2057,-47,39,-26
517191,-103906,-781,-4687,2052,-47,39,-26
517193,-103906,-781,-5468,2061,-47,39,-27
517195,-103906,-781,-5468,2046,-48,39,-26
517197,-103906,-781,-5468,2046,-48,39,-26
517199,-103906,-781,-5468,2048,-48,39,-26
517201,-103906,-781,-5468,2058,-49,39,-27
517204,-104687,-781,-5468,2053,-49,38,-27
517205,-104687,-781,-5468,2047,-50,38,-27
517207,-104687,-781,-5468,2042,-50,38,-27
517209,-104687,-781,-5468,2056,-50,39,-27
517211,-104687,-781,-5468,2049,-51,38,-27
517213,-103906,-781,-5468,2045,-51,38,-27
517215,-103906,-781,-5468,2056,-51,39,-27
517217,-103906,-781,-5468,2049,-51,39,-27
517219,-103906,-781,-5468,2041,-52,39,-27
517221,-103906,-781,-5468,2042,-52,39,-27
517223,-103906,-781,-5468,2043,-53,39,-27
517225,-103906,-781,-5468,2051,-53,38,-27
517227,-103906,-781,-5468,2042,-54,38,-27
517229,-103906,-781,-5468,2048,-54,38,-27
517231,-103906,-781,-5468,2051,-54,38,-27
517233,-104687,-781,-5468,2058,-55,38,-27
517235,-104687,-781,-5468,2051,-55,38,-27
517237,-104687,-781,-5468,2051,-55,39,-27
517239,-104687,-781,-5468,2051,-56,38,-27
517241,-104687,-781,-5468,2043,-56,38,-27
517243,-104687,-781,-5468,2042,-56,38,-27
517245,-104687,-781,-5468,2043,-56,38,-28
517247,-104687,-781,-5468,2047,-57,38,-28
517249,-104687,-781,-5468,2042,-57,38,-28
517251,-104687,-781,-5468,2051,-58,38,-28
517253,-104687,-781,-5468,2048,-58,38,-28
517255,-104687,-781,-5468,2046,-59,38,-28
517257,-104687,-781,-5468,2057,-59,38,-28
517259,-104687,-781,-5468,2045,-60,38,-28
517261,-104687,-781,-5468,2042,-60,38,-28
517263,-105468,-781,-5468,2049,-60,38,-28
517265,-105468,-781,-5468,2053,-61,38,-29
517267,-105468,-781,-5468,2045,-61,38,-28
517269,-105468,-781,-5468,2045,-61,38,-29
517271,-105468,-781,-5468,2049,-62,38,-29
517274,-104687,-781,-5468,2057,-62,38,-29
517275,-104687,-781,-5468,2046,-62,38,-29
517277,-104687,-781,-5468,2053,-62,38,-29
517279,-104687,-781,-5468,2061,-63,38,-29
517281,-104687,-781,-5468,2051,-63,38,-29
517283,-105468,-781,-4687,2049,-64,38,-29
517285,-105468,-781,-4687,2053,-64,38,-29
517287,-105468,-781,-4687,2056,-64,38,-29
517289,-105468,-781,-4687,2046,-65,38,-29
517291,-105468,-781,-4687,2058,-65,38,-29
517293,-105468,-781,-4687,2051,-66,38,-29
517295,-105468,-781,-4687,2054,-66,38,-29
517297,-105468,-781,-4687,2042,-67,38,-29
517299,-105468,-781,-4687,2043,-67,38,-29
517301,-105468,-781,-4687,2048,-68,38,-30
517303,-105468,-781,-3906,2045,-68,38,-30
517305,-105468,-781,-3906,2051,-68,37,-30
517307,-105468,-781,-3906,2045,-69,37,-30
517309,-105468,-781,-3906,2048,-69,37,-30
517311,-105468,-781,-3906,2046,-69,37,-30
517313,-105468,0,-5468,2052,-70,37,-30
517315,-105468,0,-5468,2043,-70,37,-30
517317,-105468,0,-5468,2043,-70,37,-30
517319,-105468,0,-5468,2051,-71,37,-30
517321,-105468,0,-5468,2041,-71,37,-30
517323,-105468,0,-5468,2051,-71,37,-31
517325,-104687,0,-5468,2057,-72,37,-31
517327,-104687,0,-5468,2053,-72,37,-31
517329,-104687,0,-5468,2043,-73,37,-31
517331,-104687,0,-5468,2040,-73,37,-30
517333,-104687,0,-5468,2045,-74,37,-30
517335,-105468,-781,-5468,2045,-74,37,-31
517337,-105468,-781,-5468,2046,-74,37,-31
517339,-105468,-781,-5468,2043,-75,36,-30
517341,-105468,-781,-5468,2053,-75,36,-31
517343,-105468,-781,-5468,2047,-76,36,-30
517345,-104687,-781,-4687,2048,-76,36,-31
517347,-104687,-781,-4687,2047,-76,36,-31
517349,-104687,-781,-4687,2043,-77,36,-31
517351,-104687,-781,-4687,2051,-77,36,-31
517353,-104687,-781,-4687,2046,-78,36,-31
517355,-105468,-781,-4687,2046,-78,36,-31
517357,-105468,-781,-4687,2052,-78,35,-31
517359,-105468,-781,-4687,2047,-79,35,-31
517361,-105468,-781,-4687,2051,-79,35,-30
517363,-105468,-781,-4687,2049,-79,35,-30
517365,-104687,0,-5468,2046,-80,35,-31
517367,-104687,0,-5468,2047,-80,35,-31
517369,-104687,0,-5468,2048,-81,35,-30
517371,-104687,0,-5468,2058,-81,35,-31
517373,-104687,0,-5468,2041,-81,35,-31
517375,-105468,-781,-4687,2038,-82,34,-31
517377,-105468,-781,-4687,2051,-82,34,-31
517379,-105468,-781,-4687,2057,-83,34,-31
517381,-105468,-781,-4687,2048,-83,34,-31
517383,-105468,-781,-4687,2049,-83,34,-31
517385,-104687,0,-3906,2046,-84,34,-31
517387,-104687,0,-3906,2048,-84,34,-31
517389,-104687,0,-3906,2048,-84,34,-31
517391,-104687,0,-3906,2052,-84,34,-31
517393,-104687,0,-3906,2041,-85,34,-31
517395,-105468,0,-3125,2048,-85,33,-31
517397,-105468,0,-3125,2042,-85,33,-31
517399,-105468,0,-3125,2042,-86,33,-31
517401,-105468,0,-3125,2051,-86,33,-31
517403,-105468,0,-3125,2045,-86,33,-31
517405,-104687,0,-4687,2046,-87,33,-31
517407,-104687,0,-4687,2057,-87,33,-31
517409,-104687,0,-4687,2045,-87,33,-31
517412,-104687,0,-4687,2051,-88,33,-31
517413,-104687,0,-4687,2059,-88,33,-31
517415,-104687,-781,-3906,2057,-88,33,-31
517417,-104687,-781,-3906,2056,-89,33,-31
517419,-104687,-781,-3906,2048,-89,32,-31
517421,-104687,-781,-3906,2043,-90,32,-32
517423,-104687,-781,-3906,2054,-90,32,-32
517425,-105468,-781,-3125,2051,-90,32,-32
517427,-105468,-781,-3125,2042,-91,32,-32
517429,-105468,-781,-3125,2040,-91,32,-32
517431,-105468,-781,-3125,2041,-91,32,-32
517433,-105468,-781,-3125,2051,-91,32,-32
517435,-103906,0,-3125,2053,-92,32,-32
517437,-103906,0,-3125,2049,-92,32,-32
517439,-103906,0,-3125,2054,-92,31,-32
517441,-103906,0,-3125,2048,-93,31,-32
517443,-103906,0,-3125,2046,-93,31,-32
517445,-104687,-781,-2343,2048,-93,31,-32
517447,-104687,-781,-2343,2056,-94,31,-32
517449,-104687,-781,-2343,2049,-94,31,-32
517451,-104687,-781,-2343,2057,-94,31,-32
517453,-104687,-781,-2343,2049,-95,31,-32
517455,-104687,0,-3125,2046,-95,31,-32
517457,-104687,0,-3125,2042,-95,31,-32
517459,-104687,0,-3125,2041,-95,31,-32
517461,-104687,0,-3125,2051,-95,31,-32
517463,-104687,0,-3125,2043,-95,31,-32
517465,-103906,-781,-2343,2048,-96,31,-32
517467,-103906,-781,-2343,2040,-96,31,-32
517469,-103906,-781,-2343,2048,-96,31,-32
517471,-103906,-781,-2343,2047,-97,31,-32
517473,-103906,-781,-2343,2041,-97,30,-32
517475,-103906,0,-2343,2045,-97,30,-32
517477,-103906,0,-2343,2061,-97,30,-32
517479,-103906,0,-2343,2051,-97,30,-32
517481,-103906,0,-2343,2043,-98,30,-33
517484,-103906,0,-2343,2048,-98,30,-33
517485,-103906,-781,-2343,2049,-98,30,-33
517487,-103906,-781,-2343,2046,-98,30,-33
517489,-103906,-781,-2343,2053,-99,30,-33
517491,-103906,-781,-2343,2054,-99,30,-33
517493,-103906,-781,-2343,2041,-99,30,-33
517495,-103906,-781,-2343,2051,-100,30,-32
517497,-103906,-781,-1562,2052,-100,30,-32
517499,-103906,-781,-1562,2042,-100,30,-33
517501,-103906,-781,-1562,2048,-100,30,-33
517504,-103906,-781,-1562,2049,-101,30,-33
517505,-103906,-781,-1562,2061,-101,30,-33
517507,-103906,0,-781,2047,-101,30,-33
517509,-103906,0,-781,2041,-101,30,-33
517511,-103906,0,-781,2046,-101,30,-33
517513,-103906,0,-781,2049,-102,30,-33
517515,-103906,0,-781,2047,-102,30,-34
517517,-103125,0,0,2051,-102,29,-34
517519,-103125,0,0,2054,-102,29,-34
517521,-103125,0,0,2051,-102,30,-34
517523,-103125,0,0,2041,-102,29,-34
517525,-103125,0,0,2051,-102,29,-34
517527,-103906,781,-781,2051,-102,29,-34
517529,-103906,781,-781,2038,-102,29,-34
517531,-103906,781,-781,2041,-103,29,-33
517533,-103906,781,-781,2051,-103,29,-33
517535,-103906,781,-781,2043,-103,29,-33
517537,-103125,-781,0,2054,-103,28,-33
517539,-103125,-781,0,2045,-103,28,-34
517541,-103125,-781,0,2057,-103,28,-34
517543,-103125,-781,0,2047,-104,28,-34
517545,-103125,-781,0,2049,-104,28,-34
517547,-102343,-781,-2343,2051,-104,28,-34
517549,-102343,-781,-2343,2046,-104,28,-34
517551,-102343,-781,-2343,2059,-104,28,-34
517553,-102343,-781,-2343,2048,-104,28,-34
517555,-102343,-781,-2343,2038,-104,28,-34
517557,-102343,-781,0,2051,-105,28,-34
517559,-102343,-781,0,2049,-105,28,-34
517561,-102343,-781,0,2043,-105,28,-34
517563,-102343,-781,0,2047,-105,28,-34
517565,-102343,-781,0,2045,-105,28,-34
517567,-102343,0,-781,2046,-105,28,-34
517569,-102343,0,-781,2043,-105,27,-34
517572,-102343,0,-781,2057,-105,27,-35
517573,-102343,0,-781,2047,-106,27,-35
517575,-102343,0,-781,2058,-106,27,-35
517577,-101562,0,0,2041,-106,27,-35
517579,-101562,0,0,2049,-106,27,-35
517581,-101562,0,0,2051,-105,27,-35
517583,-101562,0,0,2052,-106,27,-35
517585,-101562,0,0,2041,-106,27,-35
517587,-100781,-1562,781,2042,-106,27,-35
517589,-100781,-1562,781,2049,-106,26,-35
517591,-100781,-1562,781,2057,-106,26,-35
517593,-100781,-1562,781,2052,-106,26,-35
517595,-100781,-1562,781,2049,-106,26,-35
517597,-100781,-781,0,2052,-106,27,-35
517599,-100781,-781,0,2054,-106,26,-35
517601,-100781,-781,0,2051,-106,26,-35
517603,-100781,-781,0,2040,-106,26,-35
517605,-100781,-781,0,2049,-106,26,-35
517607,-100781,-1562,781,2043,-106,26,-35
517609,-100781,-1562,781,2052,-106,26,-35
517611,-100781,-1562,781,2054,-106,26,-35
517613,-100781,-1562,781,2046,-106,26,-35
517615,-100781,-1562,781,2061,-106,26,-35
517617,-100781,-781,781,2058,-106,26,-35
517619,-100781,-781,781,2043,-106,26,-35
517621,-100781,-781,781,2041,-106,26,-35
517623,-100781,-781,781,2057,-106,26,-35
517625,-100781,-781,781,2041,-106,26,-35
517627,-100781,0,1562,2052,-106,26,-35
517629,-100781,0,1562,2049,-106,26,-35
517631,-100781,0,1562,2042,-106,26,-35
517633,-100781,0,1562,2049,-106,26,-35
517635,-100781,0,1562,2046,-106,26,-36
517637,-100781,-781,1562,2061,-106,26,-36
517639,-100781,-781,1562,2061,-106,26,-36
517641,-100781,-781,1562,2051,-106,26,-36
517643,-100781,-781,1562,2043,-106,26,-36
517645,-100781,-781,1562,2054,-106,26,-36
517647,-99218,-781,2343,2049,-106,26,-36
517673,-100000,-781,2343,2053,-104,25,-36
517674,-100000,-781,2343,2042,-104,25,-36
517676,-100000,-781,2343,2048,-103,25,-36
517677,-100000,0,1562,2058,-103,25,-36
517679,-100000,0,1562,2043,-103,25,-36
517680,-100000,0,1562,2056,-103,25,-36
517682,-100000,0,1562,2054,-103,25,-36
517683,-100000,0,1562,2051,-103,25,-36
517685,-100000,0,1562,2048,-103,25,-36
517686,-100000,0,1562,2049,-103,25,-36
517688,-99218,-781,3906,2047,-102,25,-36
517689,-99218,-781,3906,2057,-102,25,-36
517691,-99218,-781,3906,2051,-102,25,-36
517692,-99218,-781,3906,2041,-102,25,-36
517694,-99218,-781,3906,2052,-102,25,-36
517695,-99218,-781,3906,2046,-102,25,-36
517697,-99218,-781,3906,2043,-102,25,-36
517698,-100000,-781,1562,2051,-101,24,-36
517700,-100000,-781,1562,2054,-101,24,-36
517701,-100000,-781,1562,2046,-101,24,-36
517703,-100000,-781,1562,2056,-101,24,-36
517704,-100000,-781,1562,2046,-101,24,-36
517706,-100000,-781,1562,2035,-100,24,-36
517707,-100000,-781,1562,2053,-100,24,-36
517709,-99218,-781,3125,2052,-100,24,-36
517710,-99218,-781,3125,2046,-100,24,-36
517712,-99218,-781,3125,2054,-100,24,-36
517713,-99218,-781,3125,2061,-100,24,-36
517715,-99218,-781,3125,2051,-99,24,-36
517716,-99218,-781,3125,2051,-99,24,-36
517718,-98437,-781,2343,2041,-99,24,-36
517719,-98437,-781,2343,2043,-99,24,-36
517721,-98437,-781,2343,2037,-99,24,-36
517724,-98437,-781,2343,2053,-98,24,-36
517725,-98437,-781,2343,2045,-98,24,-36
517727,-98437,-781,2343,2052,-98,24,-37
517729,-98437,-2343,781,2045,-98,24,-37
517730,-98437,-2343,781,2046,-98,24,-37
517731,-98437,-2343,781,2051,-98,24,-37
517733,-98437,-2343,781,2051,-98,24,-37
517734,-98437,-2343,781,2054,-98,24,-37
517736,-98437,-2343,781,2041,-98,24,-37
517737,-98437,-2343,781,2047,-97,24,-37
517739,-99218,1562,2343,2051,-97,24,-37
517740,-99218,1562,2343,2054,-96,24,-37
517742,-99218,1562,2343,2046,-96,24,-37
517743,-99218,1562,2343,2046,-96,24,-37
517745,-99218,1562,2343,2046,-96,24,-37
517746,-99218,1562,2343,2045,-96,24,-37
517748,-99218,1562,2343,2049,-96,24,-37
517749,-97656,0,5468,2045,-96,24,-37
517751,-97656,0,5468,2043,-96,24,-37
517753,-97656,0,5468,2041,-95,24,-36
517755,-97656,0,5468,2057,-95,24,-36
517757,-97656,0,5468,2043,-95,24,-36
517759,-97656,-781,4687,2049,-94,25,-36
517761,-97656,-781,4687,2051,-94,24,-36
517763,-97656,-781,4687,2049,-93,24,-36
517765,-97656,-781,4687,2048,-93,25,-36
517767,-97656,-781,4687,2051,-92,25,-36
517769,-97656,-781,4687,2041,-92,24,-36
517771,-97656,-781,4687,2051,-91,24,-36
517773,-97656,-781,4687,2043,-91,25,-36
517775,-97656,-781,4687,2053,-91,24,-36
517777,-97656,-781,4687,2048,-90,24,-36
517779,-97656,0,4687,2051,-90,24,-36
517781,-97656,0,4687,2045,-90,25,-36
517783,-97656,0,4687,2041,-89,24,-36
517786,-97656,0,4687,2052,-89,24,-36
517787,-97656,0,4687,2051,-89,24,-36
517789,-96093,-781,3906,2054,-88,24,-36
517791,-96093,-781,3906,2043,-88,24,-36
517793,-96093,-781,3906,2048,-88,24,-36
517795,-96093,-781,3906,2047,-87,24,-36
517797,-96093,-781,3906,2047,-87,24,-36
517799,-96875,-781,4687,2051,-87,24,-36
517801,-96875,-781,4687,2046,-86,24,-35
517803,-96875,-781,4687,2047,-86,24,-36
517805,-96875,-781,4687,2049,-86,24,-36
517807,-96875,-781,4687,2051,-85,24,-35
517809,-96093,0,5468,2051,-85,24,-35
517811,-96093,0,5468,2063,-85,24,-35
517813,-96093,0,5468,2045,-84,24,-35
517815,-96093,0,5468,2051,-84,24,-35
517817,-96093,0,5468,2054,-84,24,-35
517819,-96875,0,3906,2043,-83,24,-34
517821,-96875,0,3906,2054,-83,24,-34
517823,-96875,0,3906,2048,-83,24,-35
517825,-96875,0,3906,2041,-82,24,-34
517827,-96875,0,3906,2043,-82,24,-34
517829,-96875,-781,4687,2041,-82,24,-34
517831,-96875,-781,4687,2051,-81,24,-34
517833,-96875,-781,4687,2042,-81,24,-34
517835,-96875,-781,4687,2047,-81,24,-34
517837,-96875,-781,4687,2061,-81,24,-34
517839,-96875,-781,4687,2046,-80,24,-34
517841,-96875,0,5468,2051,-80,24,-35
517843,-96875,0,5468,2058,-79,24,-35
517845,-96875,0,5468,2053,-79,24,-35
517847,-96875,0,5468,2037,-79,24,-35
517849,-96875,0,5468,2048,-78,24,-35
517851,-96093,0,4687,2051,-78,24,-34
517853,-96093,0,4687,2047,-77,24,-34
517855,-96093,0,4687,2042,-77,24,-34
517857,-96093,0,4687,2040,-77,24,-34
517859,-96093,0,4687,2042,-76,24,-34
517862,-96875,0,4687,2059,-75,24,-34
517863,-96875,0,4687,2051,-75,24,-34
517865,-96875,0,4687,2053,-75,24,-34
517867,-96875,0,4687,2056,-74,24,-34
517869,-96875,0,4687,2046,-74,24,-34
517871,-95312,-781,3906,2058,-74,24,-34
517873,-95312,-781,3906,2045,-73,24,-34
517875,-95312,-781,3906,2057,-73,24,-34
517877,-95312,-781,3906,2057,-72,25,-34
517879,-95312,-781,3906,2051,-72,25,-34
517881,-95312,-781,5468,2052,-72,25,-34
517883,-95312,-781,5468,2049,-71,25,-34
517885,-95312,-781,5468,2041,-71,25,-34
517887,-95312,-781,5468,2043,-70,25,-34
517889,-95312,-781,5468,2051,-70,25,-34
517891,-95312,-781,5468,2058,-69,26,-34
517893,-95312,-781,5468,2045,-69,26,-34
517895,-95312,-781,5468,2056,-69,26,-34
517897,-95312,-781,5468,2049,-68,26,-34
517899,-95312,-781,5468,2041,-68,26,-34
517901,-96093,781,5468,2053,-67,26,-34
517903,-96093,781,5468,2046,-67,26,-34
517905,-96093,781,5468,2040,-66,26,-34
517907,-96093,781,5468,2046,-66,26,-34
517909,-96093,781,5468,2043,-65,26,-34
517911,-95312,-781,5468,2048,-65,26,-34
517913,-95312,-781,5468,2041,-65,26,-34
517915,-95312,-781,5468,2042,-64,26,-34
517917,-95312,-781,5468,2051,-64,26,-34
517919,-95312,-781,5468,2043,-63,26,-34
517921,-94531,0,5468,2051,-63,26,-34
517923,-94531,0,5468,2042,-62,26,-34
517925,-94531,0,5468,2051,-62,26,-34
517927,-94531,0,5468,2043,-61,26,-34
517929,-94531,0,5468,2057,-61,26,-34
517931,-95312,0,4687,2051,-60,26,-33
517933,-95312,0,4687,2049,-60,26,-33
517935,-95312,0,4687,2051,-59,26,-33
517937,-95312,0,4687,2049,-59,26,-33
517939,-95312,0,4687,2048,-59,26,-33
517941,-95312,-781,6250,2051,-58,26,-33
517943,-95312,-781,6250,2037,-58,26,-32
517945,-95312,-781,6250,2056,-57,26,-32
517947,-95312,-781,6250,2051,-57,27,-32
517949,-95312,-781,6250,2047,-56,27,-32
517951,-93750,0,7031,2047,-55,27,-32
517953,-93750,0,7031,2045,-55,27,-32
517955,-93750,0,7031,2054,-54,27,-32
517957,-93750,0,7031,2052,-54,27,-32
517959,-93750,0,7031,2048,-53,27,-32
517961,-94531,-1562,5468,2047,-53,27,-32
517963,-94531,-1562,5468,2048,-52,27,-32
517965,-94531,-1562,5468,2045,-52,27,-32
517967,-94531,-1562,5468,2041,-52,27,-32
517969,-94531,-1562,5468,2046,-51,27,-32
517971,-95312,-781,5468,2049,-51,27,-32
517973,-95312,-781,5468,2040,-50,27,-32
517975,-95312,-781,5468,2047,-50,27,-31
517977,-95312,-781,5468,2042,-50,27,-31
517979,-95312,-781,5468,2056,-49,27,-31
517981,-94531,0,6250,2042,-49,27,-31
517983,-94531,0,6250,2046,-48,28,-31
517985,-94531,0,6250,2049,-48,28,-31
517987,-94531,0,6250,2053,-47,28,-31
517989,-94531,0,6250,2041,-47,28,-31
517991,-96093,0,4687,2049,-47,28,-31
517993,-96093,0,4687,2043,-46,28,-31
517995,-96093,0,4687,2053,-46,28,-31
517997,-96093,0,4687,2057,-45,28,-31
517999,-96093,0,4687,2061,-45,28,-31
518001,-95312,-781,4687,2041,-44,28,-31
518003,-95312,-781,4687,2048,-44,28,-31
518005,-95312,-781,4687,2052,-44,28,-31
518007,-95312,-781,4687,2049,-43,28,-31
518009,-95312,-781,4687,2059,-43,28,-31
518011,-95312,-781,4687,2045,-43,28,-31
518013,-95312,0,5468,2052,-42,28,-31
518015,-95312,0,5468,2041,-42,28,-31
518017,-95312,0,5468,2045,-41,29,-31
518019,-95312,0,5468,2053,-41,29,-31
518021,-95312,0,5468,2054,-41,29,-31
518023,-95312,0,3125,2061,-41,29,-30
518025,-95312,0,3125,2043,-40,29,-31
518027,-95312,0,3125,2053,-40,29,-31
518029,-95312,0,3125,2058,-39,29,-31
518031,-95312,0,3125,2049,-39,29,-31
518033,-95312,0,4687,2038,-39,29,-31
518035,-95312,0,4687,2041,-38,29,-31
518037,-95312,0,4687,2049,-38,29,-31
518039,-95312,0,4687,2045,-37,29,-31
518041,-95312,0,4687,2051,-37,29,-31
518043,-95312,781,5468,2046,-37,29,-31
518045,-95312,781,5468,2051,-36,29,-30
518047,-95312,781,5468,2051,-36,29,-30
518049,-95312,781,5468,2057,-36,30,-30
518051,-95312,781,5468,2043,-35,30,-30
518053,-96093,-781,4687,2051,-35,30,-30
518055,-96093,-781,4687,2051,-34,30,-30
518057,-96093,-781,4687,2049,-34,30,-30
518059,-96093,-781,4687,2051,-34,31,-30
518061,-96093,-781,4687,2043,-33,31,-30
518063,-96093,-1562,2343,2047,-33,31,-30
518066,-96093,-1562,2343,2057,-32,31,-30
518067,-96093,-1562,2343,2053,-32,31,-30
518069,-96093,-1562,2343,2058,-32,31,-30
518071,-96093,-1562,2343,2054,-31,31,-30
518073,-96093,-781,2343,2042,-31,31,-30
518075,-96093,-781,2343,2051,-31,31,-30
518077,-96093,-781,2343,2041,-30,31,-30
518079,-96093,-781,2343,2043,-30,31,-29
518081,-96093,-781,2343,2061,-30,31,-29
518083,-96093,0,2343,2045,-29,31,-29
518085,-96093,0,2343,2053,-29,31,-29
518087,-96093,0,2343,2048,-29,31,-29
518089,-96093,0,2343,2057,-28,31,-29
518091,-96093,0,2343,2049,-28,31,-29
518093,-96093,0,1562,2056,-28,30,-29
518095,-96093,0,1562,2048,-27,30,-29
518097,-96093,0,1562,2051,-27,30,-29
518099,-96093,0,1562,2051,-26,30,-29
518101,-96093,0,1562,2045,-26,30,-28
518103,-96093,0,2343,2049,-26,30,-28
518105,-96093,0,2343,2041,-25,30,-28
518107,-96093,0,2343,2042,-25,30,-28
518109,-96093,0,2343,2049,-25,31,-28
518111,-96093,0,2343,2058,-24,31,-28
518113,-96093,0,1562,2041,-24,31,-28
518115,-96093,0,1562,2046,-24,31,-28
518117,-96093,0,1562,2056,-24,31,-28
518119,-96093,0,1562,2049,-24,31,-28
518121,-96093,0,1562,2049,-23,31,-28
518123,-96093,781,2343,2053,-23,31,-28
518125,-96093,781,2343,2054,-23,31,-28
518127,-96093,781,2343,2049,-23,31,-28
518129,-96093,781,2343,2051,-22,31,-27
518131,-96093,781,2343,2047,-22,31,-27
518133,-96875,0,2343,2040,-22,32,-27
518135,-96875,0,2343,2056,-21,32,-27
518137,-96875,0,2343,2051,-21,32,-27
518139,-96875,0,2343,2045,-21,32,-26
518141,-96875,0,2343,2059,-21,32,-26
518143,-96875,-781,1562,2056,-20,32,-26
518145,-96875,-781,1562,2052,-20,32,-26
518147,-96875,-781,1562,2056,-20,32,-26
518149,-96875,-781,1562,2046,-20,33,-26
518159,-96875,0,781,2035,-18,33,-25
518161,-96875,0,781,2041,-18,33,-25
518162,-96875,0,781,2045,-18,33,-25
518164,-96875,0,3125,2051,-18,34,-25
518165,-96875,0,3125,2049,-18,33,-25
518167,-96875,0,3125,2041,-18,33,-25
518168,-96875,0,3125,2053,-18,34,-25
518170,-96875,0,3125,2054,-17,34,-25
518171,-96875,0,3125,2049,-17,34,-25
518173,-96875,0,3125,2058,-17,34,-25
518174,-97656,781,781,2059,-17,34,-25
518175,-97656,781,781,2049,-17,34,-25
518177,-97656,781,781,2049,-17,34,-25
518179,-97656,781,781,2045,-17,34,-25
518180,-97656,781,781,2052,-17,34,-25
518182,-97656,781,781,2041,-16,34,-24
518183,-97656,781,781,2042,-16,34,-24
518185,-98437,781,781,2057,-16,34,-24
518187,-98437,781,781,2049,-16,34,-24
518189,-98437,781,781,2047,-16,34,-24
518191,-98437,781,781,2051,-15,34,-24
518193,-98437,781,781,2049,-15,35,-24
518195,-97656,0,1562,2045,-15,35,-24
518197,-97656,0,1562,2048,-15,35,-24
518199,-97656,0,1562,2042,-15,35,-24
518201,-97656,0,1562,2046,-14,35,-24
518203,-97656,0,1562,2047,-14,35,-23
518205,-98437,-781,781,2047,-14,35,-23
518207,-98437,-781,781,2056,-14,35,-23
518209,-98437,-781,781,2058,-14,35,-23
518211,-98437,-781,781,2047,-14,35,-23
518213,-98437,-781,781,2046,-14,34,-23
518215,-97656,0,781,2051,-14,34,-23
518217,-97656,0,781,2045,-14,34,-23
518219,-97656,0,781,2056,-14,34,-23
518221,-97656,0,781,2045,-14,35,-22
518223,-97656,0,781,2047,-14,35,-22
518225,-98437,0,781,2056,-14,35,-22
518227,-98437,0,781,2043,-14,35,-22
518229,-98437,0,781,2059,-14,35,-22
518231,-98437,0,781,2046,-14,35,-22
518233,-98437,0,781,2046,-14,35,-22
518235,-98437,-781,781,2042,-13,35,-22
518237,-98437,-781,781,2041,-13,35,-22
518239,-98437,-781,781,2041,-13,35,-22
518241,-98437,-781,781,2049,-13,35,-22
518243,-98437,-781,781,2051,-13,35,-22
518245,-97656,0,1562,2045,-13,35,-22
518247,-97656,0,1562,2046,-13,35,-22
518249,-97656,0,1562,2048,-13,35,-22
518251,-97656,0,1562,2054,-13,35,-22
518253,-97656,0,1562,2042,-13,35,-22
518255,-99218,781,781,2051,-12,35,-22
518257,-99218,781,781,2058,-12,36,-22
518259,-99218,781,781,2042,-12,36,-22
518261,-99218,781,781,2047,-12,36,-22
518263,-99218,781,781,2052,-12,36,-22
518265,-100000,0,0,2046,-12,36,-22
518267,-100000,0,0,2051,-12,36,-22
518269,-100000,0,0,2046,-12,36,-22
518271,-100000,0,0,2040,-12,36,-22
518273,-100000,0,0,2054,-12,36,-22
518275,-100000,0,-781,2051,-12,36,-22
518277,-100000,0,-781,2045,-12,37,-22
518279,-100000,0,-781,2051,-12,37,-22
518281,-100000,0,-781,2046,-12,37,-21
518283,-100000,0,-781,2054,-12,37,-21
518285,-99218,-781,-781,2043,-12,37,-21
518287,-99218,-781,-781,2047,-12,37,-21
518289,-99218,-781,-781,2051,-12,37,-21
518291,-99218,-781,-781,2058,-12,37,-21
518293,-99218,-781,-781,2051,-12,37,-21
518295,-99218,0,0,2059,-12,37,-21
518297,-99218,0,0,2046,-12,37,-21
518299,-99218,0,0,2041,-12,37,-21
518301,-99218,0,0,2041,-12,37,-20
518303,-99218,0,0,2047,-12,37,-21
518305,-99218,0,-1562,2052,-12,37,-21
518307,-99218,0,-1562,2043,-12,37,-21
518309,-99218,0,-1562,2052,-12,37,-20
518312,-99218,0,-1562,2043,-11,37,-20
518313,-99218,0,-1562,2049,-11,37,-20
518315,-100000,0,-781,2061,-11,37,-21
518317,-100000,0,-781,2053,-11,37,-21
518319,-100000,0,-781,2052,-11,37,-21
518321,-100000,0,-781,2057,-12,37,-21
518323,-100000,0,-781,2045,-12,37,-21
518325,-99218,-781,-781,2045,-12,37,-21
518327,-99218,-781,-781,2051,-12,37,-21
518329,-99218,-781,-781,2043,-12,37,-21
518331,-99218,-781,-781,2048,-12,37,-20
518333,-99218,-781,-781,2054,-12,37,-20
518335,-100000,0,-781,2051,-12,37,-20
518337,-100000,0,-781,2048,-13,37,-21
518339,-100000,0,-781,2048,-13,37,-21
518341,-100000,0,-781,2047,-13,37,-20
518343,-100000,0,-781,2062,-13,37,-20
518345,-100000,-781,-1562,2056,-13,37,-20
518347,-100000,-781,-1562,2048,-13,37,-20
518349,-100000,-781,-1562,2042,-13,37,-20
518351,-100000,-781,-1562,2051,-13,37,-19
518353,-100000,-781,-1562,2054,-13,37,-19
518355,-100781,0,-781,2049,-13,37,-19
518357,-100781,0,-781,2045,-13,37,-19
518359,-100781,0,-781,2046,-13,37,-19
518361,-100781,0,-781,2040,-13,37,-19
518363,-100781,0,-781,2061,-14,37,-19
518365,-100781,0,-781,2051,-14,37,-19
518367,-100781,0,-781,2059,-14,37,-19
518369,-100781,0,-781,2051,-14,37,-19
518371,-100781,0,-781,2056,-14,37,-19
518373,-100781,0,-781,2047,-14,37,-19
518375,-100781,0,-781,2049,-14,37,-19
518377,-100000,0,-1562,2045,-14,37,-19
518380,-100000,0,-1562,2045,-14,37,-19
518381,-100000,0,-1562,2058,-14,37,-19
518383,-100000,0,-1562,2061,-14,37,-19
518385,-100000,0,-1562,2053,-14,38,-19
518387,-100000,0,-1562,2054,-15,38,-19
518389,-100000,0,-1562,2057,-15,38,-19
518391,-100000,0,-1562,2049,-15,38,-19
518393,-100000,0,-1562,2046,-15,38,-19
518395,-100000,0,-1562,2046,-15,38,-18
518397,-100781,-781,-1562,2046,-16,38,-18
518399,-100781,-781,-1562,2051,-16,38,-18
518401,-100781,-781,-1562,2046,-16,38,-18
518403,-100781,-781,-1562,2047,-16,38,-18
518405,-100781,-781,-1562,2051,-16,38,-18
518407,-100781,-781,-3125,2053,-16,38,-18
518409,-100781,-781,-3125,2045,-16,38,-18
518411,-100781,-781,-3125,2045,-16,39,-18
518413,-100781,-781,-3125,2051,-16,39,-18
518415,-100781,-781,-3125,2056,-16,39,-18
518417,-100781,0,-3125,2051,-17,39,-18
518419,-100781,0,-3125,2051,-17,39,-18
518421,-100781,0,-3125,2049,-17,38,-18
518423,-100781,0,-3125,2049,-17,39,-18
518425,-100781,0,-3125,2046,-17,39,-18
518427,-100781,0,-2343,2054,-18,39,-18
518429,-100781,0,-2343,2040,-18,39,-18
518431,-100781,0,-2343,2047,-18,39,-18
518433,-100781,0,-2343,2038,-18,39,-18
518435,-100781,0,-2343,2046,-18,39,-18
518437,-100000,-781,-2343,2056,-19,39,-18
518439,-100000,-781,-2343,2051,-19,39,-18
518441,-100000,-781,-2343,2049,-19,39,-18
518443,-100000,-781,-2343,2052,-19,39,-18
518445,-100000,-781,-2343,2042,-19,40,-17
518448,-102343,-781,-3125,2056,-19,39,-17
518449,-102343,-781,-3125,2053,-20,39,-17
518451,-102343,-781,-3125,2053,-20,40,-17
518453,-102343,-781,-3125,2040,-20,40,-17
518455,-102343,-781,-3125,2056,-20,40,-17
518457,-101562,-781,-3906,2051,-21,40,-17
518459,-101562,-781,-3906,2049,-21,40,-17
518461,-101562,-781,-3906,2046,-21,40,-17
518463,-101562,-781,-3906,2041,-21,39,-16
518465,-101562,-781,-3906,2051,-21,39,-16
518467,-101562,-781,-3906,2049,-22,39,-16
518469,-101562,-781,-3906,2046,-22,39,-16
518471,-101562,-781,-3906,2043,-22,39,-16
518473,-101562,-781,-3906,2053,-23,39,-16
518475,-101562,-781,-3906,2045,-23,38,-16
518477,-101562,-781,-3125,2051,-23,38,-16
518479,-101562,-781,-3125,2057,-23,38,-16
518481,-101562,-781,-3125,2045,-24,38,-16
518483,-101562,-781,-3125,2051,-24,38,-16
518485,-101562,-781,-3125,2051,-24,38,-16
518487,-101562,0,-2343,2042,-24,38,-16
518489,-101562,0,-2343,2041,-25,38,-16
518491,-101562,0,-2343,2045,-25,38,-16
518493,-101562,0,-2343,2045,-25,39,-16
518495,-101562,0,-2343,2051,-26,39,-16
518497,-101562,-781,-3125,2051,-26,39,-16
518499,-101562,-781,-3125,2042,-26,39,-16
518501,-101562,-781,-3125,2053,-26,39,-16
518503,-101562,-781,-3125,2056,-27,39,-16
518505,-101562,-781,-3125,2061,-27,39,-16
518507,-101562,-781,-3906,2052,-27,39,-16
518509,-101562,-781,-3906,2051,-28,39,-16
518511,-101562,-781,-3906,2046,-28,39,-16
518513,-101562,-781,-3906,2043,-28,39,-15
518515,-101562,-781,-3906,2048,-29,39,-15
518517,-102343,-781,-3906,2051,-29,39,-15
518519,-102343,-781,-3906,2048,-29,38,-15
518521,-102343,-781,-3906,2047,-29,38,-15
518523,-102343,-781,-3906,2048,-29,38,-15
518525,-102343,-781,-3906,2057,-30,38,-15
518527,-102343,-781,-3906,2045,-30,39,-15
518529,-102343,-781,-3906,2051,-30,39,-15
518531,-102343,-781,-3906,2049,-31,39,-15
518533,-102343,-781,-3906,2053,-31,39,-15
518535,-102343,-781,-3906,2045,-32,39,-15
518537,-102343,-781,-3906,2048,-32,39,-15
518539,-102343,0,-4687,2046,-32,39,-15
518541,-102343,0,-4687,2051,-32,39,-15
518543,-102343,0,-4687,2047,-33,39,-15
518545,-102343,0,-4687,2041,-33,39,-15
518547,-102343,0,-4687,2051,-34,39,-15
518549,-102343,-781,-3906,2047,-34,39,-15
518551,-102343,-781,-3906,2045,-34,39,-15
518553,-102343,-781,-3906,2041,-34,39,-15
518555,-102343,-781,-3906,2040,-35,39,-15
518557,-102343,-781,-3906,2051,-35,39,-15
518559,-102343,0,-4687,2046,-35,39,-15
518561,-102343,0,-4687,2052,-36,39,-16
518563,-102343,0,-4687,2051,-36,39,-16
518565,-102343,0,-4687,2038,-36,39,-16
518567,-102343,0,-4687,2040,-37,39,-16
518569,-103125,0,-5468,2051,-37,39,-16
518571,-103125,0,-5468,2045,-37,39,-16
518573,-103125,0,-5468,2041,-37,39,-16
518576,-103125,0,-5468,2049,-37,39,-15
518577,-103125,0,-5468,2062,-38,39,-15
518579,-103125,0,-5468,2048,-38,39,-15
518581,-103125,0,-5468,2056,-39,39,-15
518583,-103125,0,-5468,2051,-39,39,-15
518585,-103125,0,-5468,2051,-39,39,-16
518587,-103125,0,-5468,2046,-40,39,-16
518589,-103906,-781,-4687,2049,-40,39,-15
518591,-103906,-781,-4687,2048,-41,39,-15
518593,-103906,-781,-4687,2049,-41,39,-15
518595,-103906,-781,-4687,2049,-41,38,-15
518597,-103906,-781,-4687,2047,-41,38,-15
518599,-103125,0,-4687,2043,-41,38,-16
518601,-103125,0,-4687,2054,-42,38,-16
518603,-103125,0,-4687,2049,-42,37,-16
518605,-103125,0,-4687,2049,-42,37,-16
518607,-103125,0,-4687,2042,-43,37,-16
518609,-103125,-781,-3906,2051,-43,37,-16
518611,-103125,-781,-3906,2046,-43,36,-16
518613,-103125,-781,-3906,2040,-44,36,-16
518615,-103125,-781,-3906,2049,-44,36,-16
518617,-103125,-781,-3906,2051,-44,36,-16
518619,-103125,0,-4687,2042,-45,36,-16
518621,-103125,0,-4687,2045,-45,36,-16
518623,-103125,0,-4687,2046,-45,36,-16
518625,-103125,0,-4687,2045,-46,36,-17
518627,-103125,0,-4687,2056,-46,36,-16
518629,-103125,-781,-4687,2038,-46,36,-17
518631,-103125,-781,-4687,2048,-47,36,-17
518633,-103125,-781,-4687,2045,-47,36,-16
518635,-103125,-781,-4687,2049,-48,36,-16
518637,-103125,-781,-4687,2052,-48,36,-17
518639,-103125,-781,-4687,2046,-48,36,-17
518641,-103125,-781,-4687,2061,-48,36,-17
518643,-103125,-781,-4687,2049,-49,36,-17
518645,-103125,-781,-4687,2052,-49,36,-17
518647,-103125,-781,-4687,2048,-50,36,-17
518649,-103906,0,-4687,2045,-50,36,-17
518651,-103906,0,-4687,2043,-51,36,-17
518653,-103906,0,-4687,2045,-51,36,-17
518655,-103906,0,-4687,2057,-51,36,-16
518657,-103906,0,-4687,2041,-51,36,-16
518659,-103906,-781,-4687,2052,-52,36,-16
518661,-103906,-781,-4687,2045,-52,36,-16
518663,-103906,-781,-4687,2038,-52,36,-16
518665,-103906,-781,-4687,2040,-53,36,-16
518667,-103906,-781,-4687,2046,-53,36,-16
518669,-103906,0,-3906,2053,-54,36,-16
518671,-103906,0,-3906,2042,-54,36,-16
518673,-103906,0,-3906,2051,-54,36,-16
518675,-103906,0,-3906,2042,-55,36,-16
518677,-103906,0,-3906,2047,-55,36,-16
518679,-103906,0,-4687,2047,-56,36,-16
518681,-103906,0,-4687,2051,-56,35,-16
518683,-103906,0,-4687,2056,-56,35,-16
518685,-103906,0,-4687,2053,-57,35,-16
518687,-103906,0,-4687,2045,-57,35,-16
518689,-103906,0,-3906,2052,-57,35,-16
518691,-103906,0,-3906,2063,-58,35,-16
518693,-103906,0,-3906,2049,-58,34,-16
518695,-103906,0,-3906,2051,-58,34,-16
518697,-103906,0,-3906,2049,-59,34,-16
518699,-103125,-781,-3906,2045,-59,34,-16
518701,-103125,-781,-3906,2049,-59,34,-16
518703,-103125,-781,-3906,2054,-60,34,-16
518705,-103125,-781,-3906,2053,-60,34,-16
518707,-103125,-781,-3906,2051,-60,34,-16
518709,-103125,-1562,-3906,2047,-60,33,-16
518711,-103125,-1562,-3906,2042,-61,33,-16
518713,-103125,-1562,-3906,2045,-61,33,-16
518715,-103125,-1562,-3906,2051,-62,33,-16
518717,-103125,-1562,-3906,2045,-62,33,-16
518719,-103125,-1562,-3906,2049,-62,33,-16
518721,-103906,0,-3906,2051,-63,33,-16
518723,-103906,0,-3906,2046,-63,32,-16
518725,-103906,0,-3906,2051,-64,32,-16
518727,-103906,0,-3906,2052,-64,32,-16
518729,-103906,0,-3906,2051,-64,32,-16
518731,-104687,-781,-2343,2042,-65,32,-16
518733,-104687,-781,-2343,2052,-65,32,-16
518735,-104687,-781,-2343,2049,-65,32,-16
518737,-104687,-781,-2343,2049,-66,32,-16
518739,-104687,-781,-2343,2047,-66,32,-16
518741,-103125,0,-3125,2041,-66,32,-17
518743,-103125,0,-3125,2045,-66,32,-17
518745,-103125,0,-3125,2058,-67,31,-17
518747,-103125,0,-3125,2058,-67,31,-17
518749,-103125,0,-3125,2051,-67,31,-17
518751,-103125,0,-3125,2045,-68,32,-17
518753,-103125,0,-3125,2051,-68,32,-17
518755,-103125,0,-3125,2046,-68,31,-17
518757,-103125,0,-3125,2052,-68,31,-17
518759,-103125,0,-3125,2051,-69,31,-17
518761,-103125,0,-3125,2051,-69,31,-17
518763,-103125,0,-3125,2042,-69,31,-17
518765,-103125,0,-3125,2045,-70,31,-17
518767,-103125,0,-3125,2053,-70,31,-18
518769,-103125,0,-3125,2046,-70,31,-18
518771,-103125,-781,-2343,2046,-70,31,-18
518773,-103125,-781,-2343,2046,-71,31,-18
518775,-103125,-781,-2343,2051,-71,31,-18
518778,-103125,-781,-2343,2047,-71,31,-18
518779,-103125,-781,-2343,2052,-72,31,-18
518781,-103125,-781,-4687,2049,-72,31,-18
518783,-103125,-781,-4687,2056,-72,31,-18
518785,-103125,-781,-4687,2041,-72,31,-18
518787,-103125,-781,-4687,2053,-72,31,-18
518789,-103125,-781,-4687,2052,-73,31,-18
518791,-103125,0,-2343,2041,-73,30,-18
518793,-103125,0,-2343,2046,-73,30,-18
518795,-103125,0,-2343,2051,-73,30,-18
518797,-103125,0,-2343,2042,-74,30,-18
518799,-103125,0,-2343,2040,-74,29,-18
518801,-103125,0,-2343,2048,-74,29,-18
518803,-103125,0,-2343,2042,-75,30,-18
518805,-103125,0,-2343,2047,-75,29,-18
518807,-103125,0,-2343,2058,-75,29,-18
518809,-103125,0,-2343,2046,-76,29,-18
518811,-102343,0,-2343,2051,-76,29,-18
518813,-102343,0,-2343,2051,-76,29,-18
518815,-102343,0,-2343,2051,-76,29,-19
518817,-102343,0,-2343,2048,-76,28,-19
518819,-102343,0,-2343,2047,-76,28,-19
518821,-103125,0,-2343,2047,-77,28,-19
518823,-103125,0,-2343,2041,-77,28,-19
518825,-103125,0,-2343,2053,-77,28,-19
518827,-103125,0,-2343,2052,-77,28,-19
518829,-103125,0,-2343,2048,-78,28,-19
518831,-103125,0,-3125,2051,-78,28,-19
518833,-103125,0,-3125,2046,-78,27,-19
518835,-103125,0,-3125,2041,-78,27,-19
518837,-103125,0,-3125,2048,-78,27,-19
518839,-103125,0,-3125,2041,-79,27,-19
518841,-103125,-781,-2343,2047,-79,27,-19
518843,-103125,-781,-2343,2045,-79,27,-19
518846,-103125,-781,-2343,2046,-79,27,-20
518847,-103125,-781,-2343,2051,-79,27,-20
518849,-103125,-781,-2343,2051,-80,27,-20
518851,-102343,-1562,-1562,2051,-80,27,-20
518853,-102343,-1562,-1562,2059,-80,26,-20
518855,-102343,-1562,-1562,2043,-80,26,-20
518857,-102343,-1562,-1562,2047,-80,26,-20
518859,-102343,-1562,-1562,2048,-81,26,-20
518861,-102343,-781,-781,2047,-81,26,-20
518863,-102343,-781,-781,2049,-81,26,-20
518865,-102343,-781,-781,2045,-81,25,-20
518867,-102343,-781,-781,2056,-81,26,-20
518869,-102343,-781,-781,2052,-81,26,-20
518871,-101562,0,-781,2056,-82,25,-20
518873,-101562,0,-781,2058,-82,25,-20
518875,-101562,0,-781,2059,-82,26,-20
518877,-101562,0,-781,2038,-82,26,-20
518879,-101562,0,-781,2042,-82,25,-20
518881,-101562,0,-781,2051,-82,25,-20
518883,-102343,-781,-781,2056,-83,25,-20
518885,-102343,-781,-781,2041,-83,25,-20
518887,-102343,-781,-781,2043,-83,25,-20
518889,-102343,-781,-781,2045,-83,25,-20
518891,-102343,-781,-781,2049,-83,25,-20
518893,-102343,0,-781,2046,-84,25,-20
518895,-102343,0,-781,2046,-84,25,-20
518897,-102343,0,-781,2053,-84,25,-20
518899,-102343,0,-781,2049,-84,25,-20
518901,-102343,0,-781,2040,-84,25,-20
518903,-101562,0,0,2041,-84,25,-20
518905,-101562,0,0,2042,-84,25,-20
518907,-101562,0,0,2049,-85,25,-20
518909,-101562,0,0,2056,-85,25,-21
518911,-101562,0,0,2057,-85,25,-21
518913,-102343,-2343,0,2038,-85,25,-21
518915,-102343,-2343,0,2051,-85,25,-21
518917,-102343,-2343,0,2048,-85,25,-21
518919,-102343,-2343,0,2051,-85,25,-21
518921,-102343,-2343,0,2048,-85,25,-21
518934,-101562,-781,0,2057,-86,24,-22
518936,-101562,-781,0,2046,-86,24,-22
518937,-101562,-781,0,2045,-86,24,-22
518939,-101562,-781,0,2043,-86,24,-22
518940,-101562,-781,0,2046,-86,24,-22
518942,-101562,-781,0,2053,-86,24,-22
518943,-101562,-781,0,2049,-86,24,-22
518945,-101562,-781,0,2054,-86,24,-22
518946,-101562,-781,0,2053,-86,24,-22
518948,-101562,-781,0,2056,-86,24,-23
518949,-101562,-781,0,2049,-86,24,-23
518951,-101562,-781,0,2053,-86,24,-23
518952,-101562,-781,0,2043,-86,23,-23
518954,-101562,-781,0,2041,-86,23,-23
518955,-101562,-781,0,2042,-87,23,-23
518957,-101562,-781,0,2046,-87,23,-23
518958,-101562,-781,0,2047,-87,23,-23
518960,-101562,-781,0,2041,-87,23,-22
518961,-101562,-781,0,2056,-87,23,-23
518963,-101562,-1562,0,2058,-87,23,-23
518964,-101562,-1562,0,2049,-87,23,-23
518966,-101562,-1562,0,2054,-87,23,-23
518967,-101562,-1562,0,2053,-87,23,-23
518969,-101562,-1562,0,2041,-87,23,-23
518971,-101562,-1562,0,2041,-87,23,-23
518973,-101562,-781,0,2052,-87,23,-23
518975,-101562,-781,0,2046,-87,23,-23
518977,-101562,-781,0,2058,-87,23,-23
518979,-101562,-781,0,2051,-87,23,-23
518981,-101562,-781,0,2045,-87,23,-23
518983,-101562,-1562,781,2051,-87,22,-23
518985,-101562,-1562,781,2043,-87,22,-23
518987,-101562,-1562,781,2049,-87,22,-23
518989,-101562,-1562,781,2045,-87,22,-23
518991,-101562,-1562,781,2054,-87,22,-24
518993,-100781,-781,781,2048,-87,22,-24
518995,-100781,-781,781,2051,-87,22,-24
518997,-100781,-781,781,2048,-87,22,-24
518999,-100781,-781,781,2048,-87,22,-24
519001,-100781,-781,781,2047,-87,22,-24
519003,-100000,-1562,0,2046,-87,22,-24
519005,-100000,-1562,0,2049,-87,22,-24
519007,-100000,-1562,0,2049,-87,22,-24
519009,-100000,-1562,0,2047,-87,22,-24
519011,-100000,-1562,0,2042,-87,22,-24
519013,-100000,-781,0,2046,-87,22,-24
519015,-100000,-781,0,2048,-87,22,-24
519017,-100000,-781,0,2043,-87,22,-25
519019,-100000,-781,0,2051,-87,22,-25
519021,-100000,-781,0,2051,-87,22,-25
519023,-100000,-781,1562,2051,-88,22,-25
519025,-100000,-781,1562,2041,-87,22,-25
519027,-100000,-781,1562,2047,-87,22,-25
519029,-100000,-781,1562,2043,-87,22,-25
519031,-100000,-781,1562,2048,-87,22,-26
519033,-100000,-1562,781,2043,-87,22,-26
519035,-100000,-1562,781,2040,-87,22,-26
519037,-100000,-1562,781,2043,-87,22,-26
519039,-100000,-1562,781,2045,-87,22,-26
519042,-100000,-1562,781,2061,-86,22,-26
519043,-100000,-1562,781,2048,-86,22,-26
519045,-100000,-1562,781,2054,-86,22,-26
519047,-100000,-1562,781,2047,-86,22,-26
519049,-100000,-1562,781,2049,-86,22,-26
519051,-100000,-1562,781,2051,-86,22,-26
519053,-100000,-1562,1562,2047,-86,22,-26
519055,-100000,-1562,1562,2049,-85,22,-26
519057,-100000,-1562,1562,2056,-85,22,-26
519059,-100000,-1562,1562,2047,-85,22,-27
519061,-100000,-1562,1562,2045,-85,22,-27
519063,-100000,-1562,1562,2057,-85,22,-27
519065,-100781,-1562,1562,2046,-85,22,-27
519067,-100781,-1562,1562,2051,-85,22,-27
519069,-100781,-1562,1562,2049,-85,22,-27
519071,-100781,-1562,1562,2041,-85,21,-27
519073,-100781,-1562,1562,2061,-85,21,-27
519075,-100000,-781,1562,2048,-85,21,-27
519077,-100000,-781,1562,2046,-84,21,-27
519079,-100000,-781,1562,2043,-84,21,-27
519081,-100000,-781,1562,2047,-84,21,-27
519083,-100000,-781,1562,2056,-84,20,-27
519085,-99218,-1562,781,2045,-84,20,-27
519087,-99218,-1562,781,2062,-83,20,-27
519089,-99218,-1562,781,2041,-83,20,-27
519091,-99218,-1562,781,2057,-83,20,-27
519093,-99218,-1562,781,2053,-83,20,-27
519095,-100000,-1562,3125,2041,-83,20,-27
519097,-100000,-1562,3125,2051,-82,20,-27
519099,-100000,-1562,3125,2051,-82,20,-27
519101,-100000,-1562,3125,2053,-82,20,-27
519103,-100000,-1562,3125,2049,-82,20,-27
519105,-100000,-3125,1562,2063,-82,20,-27
519107,-100000,-3125,1562,2051,-82,20,-27
519109,-100000,-3125,1562,2047,-82,20,-27
519111,-100000,-3125,1562,2045,-82,20,-27
519113,-100000,-3125,1562,2046,-81,20,-27
519115,-100000,-781,0,2053,-81,20,-28
519128,-99218,-1562,1562,2046,-81,21,-28
519130,-99218,-1562,1562,2047,-81,21,-28
519131,-99218,-1562,1562,2058,-80,21,-28
519133,-99218,-1562,1562,2046,-80,21,-28
519134,-100000,-1562,2343,2058,-80,21,-28
519136,-100000,-1562,2343,2046,-80,21,-28
519137,-100000,-1562,2343,2052,-80,21,-28
519139,-100000,-1562,2343,2051,-80,21,-28
519140,-100000,-1562,2343,2042,-80,21,-28
519142,-100000,-1562,2343,2054,-80,21,-28
519143,-100000,-1562,2343,2047,-80,21,-29
519145,-99218,-1562,3125,2045,-80,21,-29
519146,-99218,-1562,3125,2056,-80,21,-29
519148,-99218,-1562,3125,2040,-79,21,-29
519149,-99218,-1562,3125,2042,-79,22,-29
519151,-99218,-1562,3125,2037,-79,22,-29
519152,-99218,-1562,3125,2046,-79,22,-29
519154,-99218,-1562,3125,2052,-79,22,-29
519155,-100000,-1562,1562,2045,-79,22,-29
519157,-100000,-1562,1562,2041,-79,22,-29
519158,-100000,-1562,1562,2051,-79,22,-29
519160,-100000,-1562,1562,2040,-78,22,-29
519161,-100000,-1562,1562,2041,-78,22,-29
519163,-100000,-1562,1562,2051,-78,22,-29
519165,-99218,-1562,2343,2054,-78,22,-29
519167,-99218,-1562,2343,2051,-77,22,-29
519169,-99218,-1562,2343,2043,-77,22,-29
519171,-99218,-1562,2343,2053,-77,22,-29
519173,-99218,-1562,2343,2046,-77,22,-29
519175,-99218,-1562,1562,2047,-77,22,-30
519177,-99218,-1562,1562,2051,-76,22,-30
519179,-99218,-1562,1562,2051,-76,22,-30
519181,-99218,-1562,1562,2041,-76,22,-29
519183,-99218,-1562,1562,2047,-76,22,-30
519185,-99218,-1562,781,2041,-76,22,-30
519187,-99218,-1562,781,2053,-76,22,-30
519189,-99218,-1562,781,2043,-76,22,-30
519191,-99218,-1562,781,2046,-76,22,-30
519193,-99218,-1562,781,2046,-75,22,-30
519195,-99218,-781,2343,2052,-75,22,-30
519197,-99218,-781,2343,2043,-75,22,-30
519199,-99218,-781,2343,2049,-75,22,-30
519201,-99218,-781,2343,2046,-74,22,-30
519203,-99218,-781,2343,2047,-74,22,-30
519205,-99218,-1562,1562,2051,-74,22,-30
519207,-99218,-1562,1562,2047,-74,22,-30
519209,-99218,-1562,1562,2053,-73,22,-30
519211,-99218,-1562,1562,2041,-73,22,-30
519213,-99218,-1562,1562,2048,-73,22,-30
519215,-98437,-1562,2343,2058,-73,22,-30
519217,-98437,-1562,2343,2053,-72,22,-30
519219,-98437,-1562,2343,2052,-72,22,-30
519221,-98437,-1562,2343,2042,-72,22,-30
519223,-98437,-1562,2343,2056,-72,22,-30
519225,-98437,-1562,2343,2041,-72,22,-30
519227,-99218,-781,2343,2042,-72,23,-30
519229,-99218,-781,2343,2048,-71,23,-30
519231,-99218,-781,2343,2053,-71,23,-30
519233,-99218,-781,2343,2054,-71,23,-30
519236,-100000,-781,1562,2042,-71,23,-31
519237,-100000,-781,1562,2047,-70,23,-31
519239,-100000,-781,1562,2058,-70,23,-31
519241,-100000,-781,1562,2051,-70,23,-31
519243,-100000,-781,1562,2048,-70,23,-31
519245,-100000,-781,1562,2043,-70,23,-31
519247,-99218,-1562,2343,2049,-70,23,-31
519249,-99218,-1562,2343,2053,-70,23,-31
519251,-99218,-1562,2343,2041,-69,23,-31
519253,-99218,-1562,2343,2048,-69,23,-31
519255,-99218,-1562,2343,2048,-69,23,-31
519257,-97656,-2343,1562,2041,-69,23,-31
519259,-97656,-2343,1562,2048,-69,23,-31
519261,-97656,-2343,1562,2061,-69,23,-31
519263,-97656,-2343,1562,2045,-69,23,-31
519265,-97656,-2343,1562,2047,-69,23,-31
519267,-98437,-1562,1562,2048,-68,23,-31
519269,-98437,-1562,1562,2051,-68,23,-31
519271,-98437,-1562,1562,2053,-68,24,-31
519273,-98437,-1562,1562,2051,-68,24,-31
519275,-98437,-1562,1562,2053,-68,24,-32
519277,-99218,-1562,1562,2046,-67,24,-32
519279,-99218,-1562,1562,2051,-67,24,-32
519281,-99218,-1562,1562,2058,-67,24,-32
519283,-99218,-1562,1562,2040,-66,24,-32
519285,-99218,-1562,1562,2059,-66,24,-32
519287,-98437,-1562,1562,2049,-66,24,-32
519289,-98437,-1562,1562,2041,-66,24,-32
519291,-98437,-1562,1562,2045,-66,24,-32
519293,-98437,-1562,1562,2048,-66,24,-32
519295,-98437,-1562,1562,2041,-66,25,-32
519298,-99218,-1562,781,2051,-66,25,-32
519299,-99218,-1562,781,2051,-65,25,-32
519301,-99218,-1562,781,2048,-65,25,-32
519303,-99218,-1562,781,2046,-65,25,-32
519305,-99218,-1562,781,2048,-65,25,-32
519307,-99218,-781,2343,2045,-65,25,-32
519309,-99218,-781,2343,2057,-64,25,-32
519311,-99218,-781,2343,2046,-64,25,-32
519313,-99218,-781,2343,2051,-64,26,-32
519315,-99218,-781,2343,2053,-63,26,-32
519317,-99218,-781,2343,2061,-63,26,-32
519319,-99218,-781,2343,2051,-63,26,-32
519321,-99218,-781,2343,2053,-63,26,-32
519323,-99218,-781,2343,2051,-63,26,-32
519325,-99218,-781,2343,2053,-63,26,-32
519327,-98437,-1562,1562,2058,-62,25,-32
519329,-98437,-1562,1562,2045,-62,25,-32
519331,-98437,-1562,1562,2052,-62,26,-32
519333,-98437,-1562,1562,2059,-62,25,-32
519335,-98437,-1562,1562,2045,-62,26,-32
519337,-99218,-1562,1562,2079,-62,26,-32
519339,-99218,-1562,1562,2041,-62,26,-32
519341,-99218,-1562,1562,2054,-61,26,-32
519343,-99218,-1562,1562,2036,-61,26,-32
519345,-99218,-1562,1562,2047,-61,26,-32
519347,-99218,-1562,1562,2045,-61,26,-32
519349,-99218,-1562,1562,2049,-61,26,-32
519351,-99218,-1562,1562,2049,-60,26,-32
519353,-99218,-1562,1562,2040,-60,26,-32
519355,-99218,-1562,1562,2051,-60,26,-32
519357,-99218,-781,1562,2051,-59,26,-32
519359,-99218,-781,1562,2045,-59,26,-32
519362,-99218,-781,1562,2046,-59,26,-32
519363,-99218,-781,1562,2045,-59,26,-32
519365,-99218,-781,1562,2042,-59,26,-32
519367,-99218,-1562,781,2054,-58,26,-32
519369,-99218,-1562,781,2053,-58,26,-32
519371,-99218,-1562,781,2043,-58,26,-32
519373,-99218,-1562,781,2047,-58,26,-32
519375,-99218,-1562,781,2046,-58,26,-32
519377,-99218,-781,781,2047,-58,27,-33
519379,-99218,-781,781,2051,-57,27,-33
519381,-99218,-781,781,2041,-57,27,-33
519383,-99218,-781,781,2049,-57,27,-33
519385,-99218,-781,781,2051,-57,27,-33
519387,-99218,-781,1562,2041,-57,27,-33
519389,-99218,-781,1562,2047,-57,28,-33
519391,-99218,-781,1562,2043,-57,28,-32
519393,-99218,-781,1562,2059,-56,28,-32
519395,-99218,-781,1562,2049,-56,28,-32
519397,-99218,-781,1562,2053,-56,28,-32
519399,-99218,-1562,2343,2049,-56,28,-32
519401,-99218,-1562,2343,2046,-55,28,-32
519403,-99218,-1562,2343,2053,-55,28,-32
519405,-99218,-1562,2343,2045,-55,29,-32
519407,-99218,-1562,2343,2040,-55,29,-32
519409,-98437,-781,781,2041,-55,29,-32
519411,-98437,-781,781,2041,-55,29,-32
519413,-98437,-781,781,2051,-55,29,-32
519415,-98437,-781,781,2045,-55,29,-32
519417,-98437,-781,781,2047,-55,29,-32
519419,-99218,0,2343,2045,-55,29,-32
519421,-99218,0,2343,2061,-54,30,-32
519423,-99218,0,2343,2051,-54,30,-32
519425,-99218,0,2343,2046,-54,30,-32
519427,-99218,0,2343,2047,-54,30,-32
519430,-99218,-781,1562,2056,-53,30,-32
519431,-99218,-781,1562,2057,-53,30,-32
519433,-99218,-781,1562,2042,-53,30,-32
519435,-99218,-781,1562,2057,-53,30,-31
519437,-99218,-781,1562,2042,-53,30,-31
519439,-100000,-781,1562,2051,-53,30,-31
519441,-100000,-781,1562,2056,-53,30,-32
519443,-100000,-781,1562,2047,-52,30,-32
519445,-100000,-781,1562,2052,-52,30,-32
519447,-100000,-781,1562,2046,-52,30,-32
519449,-99218,-2343,781,2049,-52,30,-32
519451,-99218,-2343,781,2046,-52,30,-32
519453,-99218,-2343,781,2042,-52,31,-32
519455,-99218,-2343,781,2056,-52,31,-32
519457,-99218,-2343,781,2043,-52,31,-32
519459,-99218,-1562,2343,2051,-51,31,-32
519461,-99218,-1562,2343,2051,-51,30,-32
519463,-99218,-1562,2343,2046,-51,31,-32
519465,-99218,-1562,2343,2036,-51,30,-32
519467,-99218,-1562,2343,2049,-51,30,-32
519469,-99218,-781,2343,2043,-51,31,-32
519471,-99218,-781,2343,2041,-50,31,-32
519473,-99218,-781,2343,2049,-50,31,-32
519475,-99218,-781,2343,2040,-50,31,-32
519477,-99218,-781,2343,2042,-50,31,-32
519479,-98437,-1562,1562,2048,-50,31,-32
519481,-98437,-1562,1562,2048,-50,31,-32
519483,-98437,-1562,1562,2053,-49,31,-32
519485,-98437,-1562,1562,2047,-49,31,-32
519487,-98437,-1562,1562,2051,-49,31,-32
519489,-98437,-2343,0,2046,-49,31,-32
519491,-98437,-2343,0,2046,-49,31,-32
519493,-98437,-2343,0,2053,-49,31,-32
519495,-98437,-2343,0,2047,-48,31,-32
519497,-98437,-2343,0,2049,-48,31,-32
519499,-98437,-781,1562,2051,-48,31,-32
519501,-98437,-781,1562,2061,-48,31,-32
519503,-98437,-781,1562,2053,-48,32,-32
519505,-98437,-781,1562,2056,-48,32,-32
519507,-98437,-781,1562,2048,-47,31,-32
519509,-98437,0,2343,2048,-47,31,-32
519511,-98437,0,2343,2040,-47,32,-32
519513,-98437,0,2343,2047,-47,32,-32
519515,-98437,0,2343,2041,-47,32,-32
519517,-98437,0,2343,2042,-47,32,-32
519519,-97656,-781,2343,2049,-46,32,-32
519521,-97656,-781,2343,2041,-46,32,-32
519523,-97656,-781,2343,2051,-46,32,-32
519525,-97656,-781,2343,2057,-46,32,-32
519527,-97656,-781,2343,2049,-46,32,-31
519529,-98437,-781,1562,2051,-45,32,-32
519531,-98437,-781,1562,2049,-45,32,-32
519533,-98437,-781,1562,2043,-45,32,-32
519535,-98437,-781,1562,2051,-45,32,-32
519537,-98437,-781,1562,2051,-45,32,-32
519539,-98437,-781,1562,2043,-45,32,-32
519541,-98437,-781,1562,2051,-45,32,-32
519543,-98437,-781,1562,2042,-45,32,-32
519545,-98437,-781,1562,2041,-44,32,-32
519547,-98437,-781,1562,2049,-44,32,-32
519549,-99218,0,1562,2036,-44,32,-32
519551,-99218,0,1562,2051,-44,32,-32
519553,-99218,0,1562,2042,-44,32,-32
519555,-99218,0,1562,2048,-44,32,-32
519557,-99218,0,1562,2045,-44,32,-32
519559,-97656,0,1562,2046,-44,33,-32
519561,-97656,0,1562,2054,-44,33,-32
519563,-97656,0,1562,2053,-44,33,-32
519565,-97656,0,1562,2061,-43,33,-32
519567,-97656,0,1562,2046,-43,33,-32
519569,-97656,0,1562,2046,-43,33,-32
519571,-97656,0,1562,2051,-43,33,-32
519573,-97656,0,1562,2052,-43,33,-31
519575,-97656,0,1562,2052,-43,33,-31
519577,-97656,0,1562,2041,-42,33,-31
519579,-97656,0,1562,2049,-42,33,-32
519581,-98437,0,781,2049,-42,33,-32
519583,-98437,0,781,2048,-42,33,-32
519585,-98437,0,781,2046,-42,33,-32
519587,-98437,0,781,2051,-42,33,-32
519589,-98437,0,781,2042,-41,33,-32
519591,-98437,0,1562,2047,-41,33,-32
519593,-98437,0,1562,2048,-41,33,-32
519595,-98437,0,1562,2052,-41,33,-32
519597,-98437,0,1562,2048,-41,33,-32
519599,-98437,0,1562,2043,-41,33,-32
519601,-97656,0,2343,2045,-41,33,-32
519603,-97656,0,2343,2051,-41,33,-32
519605,-97656,0,2343,2051,-41,33,-32
519607,-97656,0,2343,2052,-40,32,-32
519609,-97656,0,2343,2043,-40,32,-32
519611,-96875,0,781,2043,-40,32,-32
519613,-96875,0,781,2049,-40,33,-31
519615,-96875,0,781,2042,-40,33,-31
519617,-96875,0,781,2045,-40,33,-31
519619,-96875,0,781,2053,-40,33,-31
519621,-97656,-781,1562,2069,-39,33,-31
519623,-97656,-781,1562,2047,-39,33,-31
519625,-97656,-781,1562,2058,-39,32,-31
519627,-97656,-781,1562,2061,-39,32,-31
519629,-97656,-781,1562,2051,-39,32,-31
519631,-97656,781,1562,2046,-38,32,-31
519633,-97656,781,1562,2058,-38,32,-31
519635,-97656,781,1562,2057,-38,32,-31
519637,-97656,781,1562,2042,-38,32,-32
519639,-97656,781,1562,2038,-38,32,-32
519641,-97656,0,1562,2053,-38,32,-32
519643,-97656,0,1562,2051,-38,32,-32
519645,-97656,0,1562,2048,-37,32,-31
519647,-97656,0,1562,2048,-37,32,-31
519649,-97656,0,1562,2058,-37,32,-31
519651,-97656,781,781,2041,-37,32,-31
519653,-97656,781,781,2047,-37,32,-32
519655,-97656,781,781,2040,-36,32,-31
519657,-97656,781,781,2053,-36,32,-31
519659,-97656,781,781,2051,-36,32,-31
519661,-96875,-781,781,2042,-36,32,-31
519663,-96875,-781,781,2042,-36,32,-31
519665,-96875,-781,781,2041,-35,32,-31
519667,-96875,-781,781,2051,-35,32,-30
519669,-96875,-781,781,2046,-35,32,-30
519671,-97656,-781,781,2048,-35,32,-30
519673,-97656,-781,781,2043,-35,32,-30
519675,-97656,-781,781,2046,-35,32,-30
519677,-97656,-781,781,2043,-35,32,-30
519679,-97656,-781,781,2053,-34,32,-30
519681,-96875,0,781,2043,-34,33,-30
519683,-96875,0,781,2046,-34,33,-30
519685,-96875,0,781,2049,-34,32,-29
519687,-96875,0,781,2045,-34,33,-29
519689,-96875,0,781,2040,-34,33,-29
519691,-97656,-781,781,2045,-34,33,-29
519693,-97656,-781,781,2062,-34,33,-28
519695,-97656,-781,781,2048,-33,33,-28
519697,-97656,-781,781,2052,-33,33,-28
519699,-97656,-781,781,2048,-33,33,-29
519701,-96875,0,781,2047,-33,33,-29
519703,-96875,0,781,2053,-33,33,-28
519705,-96875,0,781,2046,-33,33,-28
519707,-96875,0,781,2051,-33,33,-28
519709,-96875,0,781,2059,-32,33,-28
519711,-97656,0,0,2054,-32,33,-29
519713,-97656,0,0,2041,-32,33,-29
519715,-97656,0,0,2046,-32,33,-29
519717,-97656,0,0,2051,-32,33,-29
519719,-97656,0,0,2061,-31,33,-29
519721,-96875,0,0,2049,-31,33,-29
519723,-96875,0,0,2053,-31,33,-29
519725,-96875,0,0,2041,-31,33,-29
519727,-96875,0,0,2051,-31,33,-29
519729,-96875,0,0,2043,-31,33,-29
519731,-96875,-781,781,2049,-31,33,-29
519733,-96875,-781,781,2043,-31,33,-29
519735,-96875,-781,781,2051,-31,33,-29
519737,-96875,-781,781,2046,-31,33,-29
519739,-96875,-781,781,2045,-30,33,-29
519741,-96875,-781,781,2038,-30,33,-29
519743,-97656,0,781,2051,-30,33,-29
519745,-97656,0,781,2051,-30,33,-29
519747,-97656,0,781,2058,-30,32,-29
519749,-97656,0,781,2042,-30,32,-29
519751,-97656,0,781,2037,-30,32,-29
519753,-97656,781,2343,2043,-30,32,-29
519755,-97656,781,2343,2045,-30,32,-29
519757,-97656,781,2343,2052,-30,32,-28
519759,-97656,781,2343,2043,-30,32,-29
519761,-97656,781,2343,2046,-30,32,-29
519763,-96875,-781,1562,2053,-29,32,-28
519765,-96875,-781,1562,2056,-29,32,-28
519767,-96875,-781,1562,2043,-29,32,-28
519769,-96875,-781,1562,2049,-29,32,-29
519771,-96875,-781,1562,2043,-29,31,-29
519773,-97656,0,1562,2048,-28,31,-29
519775,-97656,0,1562,2061,-28,31,-29
519777,-97656,0,1562,2041,-28,31,-29
519779,-97656,0,1562,2043,-28,30,-29
519781,-97656,0,1562,2042,-27,30,-28
519783,-96875,1562,1562,2048,-27,30,-28
519785,-96875,1562,1562,2043,-27,30,-28
519787,-96875,1562,1562,2053,-27,30,-28
519789,-96875,1562,1562,2045,-27,30,-28
519791,-96875,1562,1562,2045,-27,30,-28
519793,-97656,781,0,2051,-27,30,-28
519795,-97656,781,0,2053,-27,30,-28
519797,-97656,781,0,2043,-27,30,-29
519799,-97656,781,0,2051,-27,29,-29
519801,-97656,781,0,2051,-26,29,-29
519803,-96875,781,781,2048,-26,29,-29
519805,-96875,781,781,2045,-26,29,-28
519807,-96875,781,781,2041,-26,29,-28
519809,-96875,781,781,2051,-26,29,-28
519811,-96875,781,781,2041,-26,29,-28
519813,-97656,0,0,2042,-26,29,-28
519815,-97656,0,0,2042,-26,29,-28
519817,-97656,0,0,2049,-25,29,-28
519819,-97656,0,0,2045,-25,29,-28
519821,-97656,0,0,2056,-25,29,-28
519824,-98437,781,781,2046,-25,29,-28
519825,-98437,781,781,2061,-25,29,-28
519827,-98437,781,781,2046,-25,29,-28
519829,-98437,781,781,2049,-25,29,-28
519831,-98437,781,781,2046,-25,29,-29
519833,-97656,781,-781,2046,-25,29,-28
519835,-97656,781,-781,2052,-25,29,-28
519837,-97656,781,-781,2051,-25,29,-28
519839,-97656,781,-781,2052,-25,30,-28
519841,-97656,781,-781,2049,-25,30,-29
519843,-97656,1562,781,2051,-25,30,-29
519845,-97656,1562,781,2051,-25,30,-29
519847,-97656,1562,781,2052,-25,30,-29
519849,-97656,1562,781,2058,-25,30,-29
519851,-97656,1562,781,2041,-24,30,-28
519853,-97656,781,1562,2051,-24,30,-28
519855,-97656,781,1562,2056,-24,30,-28
519857,-97656,781,1562,2051,-24,30,-28
519859,-97656,781,1562,2046,-24,30,-28
519861,-97656,781,1562,2051,-24,30,-28
519863,-96875,0,0,2054,-24,30,-28
519865,-96875,0,0,2045,-24,30,-28
519867,-96875,0,0,2051,-24,29,-28
519869,-96875,0,0,2049,-24,29,-28
519871,-96875,0,0,2056,-24,29,-28
519873,-97656,1562,0,2052,-24,29,-28
519875,-97656,1562,0,2046,-23,29,-28
519877,-97656,1562,0,2051,-23,29,-28
519879,-97656,1562,0,2051,-23,28,-28
519881,-97656,1562,0,2037,-23,28,-28
519883,-97656,0,781,2052,-23,28,-28
519885,-97656,0,781,2049,-23,28,-28
519887,-97656,0,781,2051,-22,28,-28
519889,-97656,0,781,2041,-22,28,-28
519891,-97656,0,781,2054,-22,27,-28
519893,-97656,781,1562,2047,-22,27,-28
519896,-97656,781,1562,2046,-22,27,-28
519897,-97656,781,1562,2061,-22,27,-28
519899,-97656,781,1562,2042,-22,27,-27
519901,-97656,781,1562,2049,-22,26,-27
519903,-97656,0,781,2045,-22,26,-27
519905,-97656,0,781,2052,-22,26,-27
519907,-97656,0,781,2046,-22,26,-27
519909,-97656,0,781,2041,-21,26,-27
519911,-97656,0,781,2041,-21,26,-27
519913,-97656,0,781,2047,-21,26,-27
519915,-97656,0,0,2041,-21,26,-27
519917,-97656,0,0,2053,-21,26,-27
519919,-97656,0,0,2049,-21,26,-27
519921,-97656,0,0,2051,-21,26,-27
519923,-97656,0,0,2047,-21,26,-27
519925,-98437,0,-781,2041,-21,26,-26
519927,-98437,0,-781,2047,-21,26,-26
519929,-98437,0,-781,2041,-21,26,-26
519931,-98437,0,-781,2042,-20,26,-26
519933,-98437,0,-781,2043,-20,26,-26
519935,-96875,0,781,2056,-20,26,-26
519937,-96875,0,781,2047,-20,26,-26
519939,-96875,0,781,2043,-21,26,-26
519941,-96875,0,781,2041,-21,26,-26
519943,-96875,0,781,2045,-21,26,-26
519945,-98437,0,-1562,2045,-21,25,-26
519947,-98437,0,-1562,2054,-21,25,-26
519949,-98437,0,-1562,2053,-21,25,-26
519951,-98437,0,-1562,2045,-20,25,-26
519953,-98437,0,-1562,2049,-20,25,-26
519955,-98437,781,-2343,2051,-20,25,-26
519957,-98437,781,-2343,2038,-21,25,-26
519959,-98437,781,-2343,2041,-21,25,-26
519961,-98437,781,-2343,2047,-21,25,-26
519963,-98437,781,-2343,2046,-21,25,-26
519965,-97656,0,-781,2061,-21,25,-26
519967,-97656,0,-781,2051,-21,25,-26
519969,-97656,0,-781,2051,-21,25,-26
519971,-97656,0,-781,2051,-21,25,-26
519973,-97656,0,-781,2053,-21,25,-26
519975,-98437,0,-781,2047,-20,25,-26
519977,-98437,0,-781,2051,-20,25,-26
520001,-98437,0,0,2046,-21,25,-26
520003,-98437,0,0,2041,-21,25,-26
520004,-98437,0,0,2046,-21,25,-26
520006,-100000,781,-781,2048,-21,25,-26
520007,-100000,781,-781,2052,-21,25,-26
520008,-100000,781,-781,2046,-21,24,-26
520010,-100000,781,-781,2049,-21,24,-26
520011,-100000,781,-781,2051,-21,24,-26
520013,-100000,781,-781,2047,-21,24,-26
520014,-99218,0,0,2051,-21,24,-26
520016,-99218,0,0,2047,-21,24,-26
520017,-99218,0,0,2045,-21,24,-26
520019,-99218,0,0,2052,-21,24,-26
520020,-99218,0,0,2046,-21,24,-26
520022,-99218,0,0,2046,-21,24,-26
520023,-99218,0,0,2051,-21,24,-26
520025,-99218,0,0,2045,-21,24,-26
520026,-99218,0,0,2051,-21,24,-26
520028,-99218,0,0,2042,-21,24,-26
520029,-99218,0,0,2040,-21,24,-26
520031,-99218,0,0,2043,-20,24,-26
520032,-99218,0,0,2045,-20,24,-26
520034,-99218,0,0,2043,-20,23,-26
520035,-99218,781,0,2042,-20,23,-26
520037,-99218,781,0,2040,-21,23,-26
520038,-99218,781,0,2043,-21,23,-26
520040,-99218,781,0,2048,-21,23,-26
520041,-99218,781,0,2057,-20,23,-26
520043,-99218,781,0,2045,-20,23,-26
520044,-99218,781,0,2054,-20,23,-26
520046,-100000,0,0,2053,-20,23,-26
520047,-100000,0,0,2046,-20,23,-26
520049,-100000,0,0,2054,-21,23,-26
520050,-100000,0,0,2041,-21,23,-26
520052,-100000,0,0,2058,-20,23,-26
520053,-100000,0,0,2062,-20,23,-26
520055,-100000,0,0,2056,-20,23,-26
520056,-100781,-781,-1562,2051,-20,23,-26
520059,-100781,-781,-1562,2049,-21,23,-26
520061,-100781,-781,-1562,2057,-21,23,-26
520062,-100781,-781,-1562,2058,-21,23,-26
520064,-100781,-781,-1562,2053,-21,23,-26
520065,-100000,-1562,-781,2051,-21,23,-26
520067,-100000,-1562,-781,2048,-21,23,-26
520068,-100000,-1562,-781,2045,-21,23,-26
520070,-100000,-1562,-781,2046,-21,24,-26
520071,-100000,-1562,-781,2038,-21,24,-26
520073,-100000,-1562,-781,2051,-21,24,-26
520075,-100000,-781,-781,2045,-21,24,-26
520077,-100000,-781,-781,2046,-21,24,-26
520079,-100000,-781,-781,2049,-22,24,-26
520081,-100000,-781,-781,2045,-21,24,-26
520083,-100000,-781,-781,2043,-22,24,-26
520085,-100000,-781,-781,2053,-22,24,-26
520087,-100000,-781,-781,2057,-22,24,-26
520089,-100000,-781,-781,2048,-22,24,-26
520091,-100000,-781,-781,2045,-22,24,-26
520093,-100000,-781,-781,2047,-22,24,-26
520095,-100000,-781,-781,2042,-22,24,-26
520097,-100781,-781,-2343,2048,-22,24,-26
520099,-100781,-781,-2343,2051,-22,24,-26
520101,-100781,-781,-2343,2049,-22,24,-26
520103,-100781,-781,-2343,2041,-22,24,-26
520105,-100781,-781,-2343,2049,-22,24,-26
520107,-100781,-781,-1562,2057,-22,24,-26
520109,-100781,-781,-1562,2053,-23,24,-26
520111,-100781,-781,-1562,2057,-23,25,-25
520113,-100781,-781,-1562,2046,-23,25,-25
520115,-100781,-781,-1562,2041,-23,25,-25
520117,-100781,-781,-1562,2041,-23,25,-25
520119,-100781,-781,-1562,2043,-23,25,-25
520121,-100781,-781,-1562,2047,-24,25,-25
520123,-100781,-781,-1562,2041,-24,25,-25
520125,-100781,-781,-1562,2046,-24,25,-25
520127,-100781,-1562,-781,2042,-24,25,-25
520129,-100781,-1562,-781,2053,-24,25,-25
520131,-100781,-1562,-781,2042,-24,25,-25
520133,-100781,-1562,-781,2053,-25,25,-25
520135,-100781,-1562,-781,2057,-25,25,-25
520137,-100781,-781,-2343,2056,-25,25,-25
520139,-100781,-781,-2343,2046,-25,25,-25
520141,-100781,-781,-2343,2046,-25,25,-25
520143,-100781,-781,-2343,2051,-25,25,-25
520145,-100781,-781,-2343,2045,-25,25,-25
520147,-101562,-1562,-2343,2047,-25,25,-25
520149,-101562,-1562,-2343,2046,-26,26,-25
520151,-101562,-1562,-2343,2040,-26,26,-25
520153,-101562,-1562,-2343,2046,-26,26,-25
520155,-101562,-1562,-2343,2046,-26,26,-25
520157,-101562,-781,-2343,2056,-26,26,-25
520159,-101562,-781,-2343,2045,-26,27,-25
520161,-101562,-781,-2343,2057,-26,27,-25
520163,-101562,-781,-2343,2043,-27,27,-25
520165,-101562,-781,-2343,2042,-27,27,-25
520167,-100781,-2343,-3906,2051,-28,27,-25
520169,-100781,-2343,-3906,2047,-28,27,-26
520171,-100781,-2343,-3906,2046,-28,27,-26
520173,-100781,-2343,-3906,2041,-28,27,-26
520175,-100781,-2343,-3906,2045,-28,27,-26
520177,-101562,-3125,-2343,2049,-29,28,-26
520179,-101562,-3125,-2343,2057,-29,28,-26
520181,-101562,-3125,-2343,2053,-29,28,-26
520183,-101562,-3125,-2343,2048,-29,28,-26
520185,-101562,-3125,-2343,2046,-29,28,-26
520187,-102343,-2343,-3125,2041,-29,28,-26
520189,-102343,-2343,-3125,2048,-30,28,-26
520191,-102343,-2343,-3125,2051,-30,28,-26
520194,-102343,-2343,-3125,2047,-30,29,-26
520196,-102343,-2343,-3125,2051,-30,29,-26
520197,-102343,-2343,-2343,2049,-31,29,-26
520199,-102343,-2343,-2343,2049,-31,29,-26
520201,-102343,-2343,-2343,2048,-31,29,-26
520203,-102343,-2343,-2343,2053,-31,29,-26
520205,-102343,-2343,-2343,2051,-31,29,-26
520207,-102343,-2343,-3125,2046,-31,29,-26
520209,-102343,-2343,-3125,2042,-32,30,-27
520211,-102343,-2343,-3125,2052,-32,30,-26
520213,-102343,-2343,-3125,2056,-32,30,-26
520215,-102343,-2343,-3125,2040,-33,30,-27
520217,-102343,-3125,-3906,2051,-33,30,-27
520219,-102343,-3125,-3906,2047,-33,30,-27
520221,-102343,-3125,-3906,2045,-33,31,-27
520223,-102343,-3125,-3906,2056,-33,31,-27
520225,-102343,-3125,-3906,2051,-34,31,-27
520227,-102343,-1562,-3125,2047,-34,31,-27
520229,-102343,-1562,-3125,2042,-34,32,-27
520231,-102343,-1562,-3125,2051,-34,32,-27
520233,-102343,-1562,-3125,2042,-35,32,-28
520235,-102343,-1562,-3125,2047,-35,32,-28
520237,-103906,-2343,-3125,2045,-35,32,-27
520239,-103906,-2343,-3125,2062,-35,32,-27
520241,-103906,-2343,-3125,2046,-36,32,-27
520243,-103906,-2343,-3125,2049,-36,32,-27
520245,-103906,-2343,-3125,2049,-36,33,-27
520247,-103906,-3125,-3906,2043,-36,33,-27
520249,-103906,-3125,-3906,2048,-37,33,-27
520251,-103906,-3125,-3906,2046,-37,33,-27
520254,-103906,-3125,-3906,2057,-37,33,-27
520255,-103906,-3125,-3906,2045,-38,33,-27
520257,-103906,-3125,-3906,2053,-38,33,-27
520259,-103906,-3125,-3906,2061,-38,34,-27
520261,-103906,-3125,-3906,2048,-38,34,-27
520263,-103906,-3125,-3906,2048,-39,34,-27
520265,-103906,-3125,-3906,2053,-39,34,-27
520267,-103906,-3125,-3906,2053,-39,34,-27
520269,-103906,-2343,-4687,2046,-40,35,-27
520271,-103906,-2343,-4687,2046,-40,35,-27
520273,-103906,-2343,-4687,2049,-41,35,-27
520275,-103906,-2343,-4687,2053,-41,35,-27
520277,-103906,-2343,-4687,2042,-41,35,-27
520279,-103125,-2343,-3906,2046,-42,35,-27
520281,-103125,-2343,-3906,2043,-42,35,-27
520283,-103125,-2343,-3906,2054,-42,36,-27
520285,-103125,-2343,-3906,2041,-42,36,-27
520287,-103125,-2343,-3906,2059,-42,36,-27
520289,-104687,-3125,-4687,2043,-43,36,-27
520291,-104687,-3125,-4687,2047,-43,36,-27
520293,-104687,-3125,-4687,2061,-43,36,-27
520295,-104687,-3125,-4687,2046,-44,36,-28
520297,-104687,-3125,-4687,2046,-44,36,-28
520299,-103906,-3125,-3906,2052,-44,37,-28
520301,-103906,-3125,-3906,2042,-45,37,-28
520303,-103906,-3125,-3906,2046,-45,37,-28
520305,-103906,-3125,-3906,2041,-45,37,-28
520307,-103906,-3125,-3906,2046,-46,37,-28
520309,-104687,-3906,-4687,2049,-46,37,-28
520311,-104687,-3906,-4687,2046,-46,38,-28
520313,-104687,-3906,-4687,2051,-46,38,-28
520315,-104687,-3906,-4687,2061,-47,38,-28
520317,-104687,-3906,-4687,2051,-47,38,-28
520320,-104687,-3125,-3906,2045,-48,38,-29
520321,-104687,-3125,-3906,2051,-48,38,-29
520323,-104687,-3125,-3906,2051,-48,38,-29
520325,-104687,-3125,-3906,2048,-49,39,-29
520327,-104687,-3125,-3906,2054,-49,39,-29
520329,-103906,-3125,-5468,2052,-49,39,-29
520331,-103906,-3125,-5468,2037,-50,39,-29
520333,-103906,-3125,-5468,2048,-50,39,-30
520335,-103906,-3125,-5468,2058,-50,39,-30
520337,-103906,-3125,-5468,2041,-51,39,-30
520339,-104687,-3125,-4687,2049,-51,39,-30
520341,-104687,-3125,-4687,2046,-51,39,-30
520343,-104687,-3125,-4687,2043,-52,40,-30
520345,-104687,-3125,-4687,2043,-52,40,-30
520347,-104687,-3125,-4687,2045,-52,40,-30
520349,-104687,-3125,-4687,2049,-53,40,-30
520351,-104687,-3125,-4687,2053,-53,40,-31
520353,-104687,-3125,-4687,2046,-54,40,-31
520355,-104687,-3125,-4687,2049,-54,40,-31
520357,-104687,-3125,-4687,2052,-54,40,-31
520359,-104687,-2343,-4687,2051,-55,41,-31
520361,-104687,-2343,-4687,2040,-55,40,-31
520363,-104687,-2343,-4687,2051,-55,40,-31
520365,-104687,-2343,-4687,2048,-56,41,-31
520367,-104687,-2343,-4687,2048,-56,41,-31
520369,-105468,-2343,-6250,2043,-56,41,-31
520371,-105468,-2343,-6250,2046,-56,41,-31
520373,-105468,-2343,-6250,2045,-57,41,-31
520375,-105468,-2343,-6250,2054,-57,41,-31
520377,-105468,-2343,-6250,2042,-58,41,-31
520379,-105468,-1562,-5468,2043,-58,41,-31
520381,-105468,-1562,-5468,2046,-58,41,-31
520383,-105468,-1562,-5468,2047,-59,41,-31
520385,-105468,-1562,-5468,2045,-59,41,-31
520399,-105468,-3125,-4687,2047,-62,42,-31
520401,-105468,-3125,-4687,2043,-62,43,-32
520402,-105468,-3125,-4687,2047,-62,43,-32
520404,-105468,-3125,-4687,2049,-62,43,-32
520406,-105468,-3125,-4687,2041,-62,42,-32
520407,-105468,-3125,-4687,2049,-63,42,-32
520409,-105468,-3125,-4687,2049,-63,43,-32
520410,-104687,-3906,-5468,2046,-63,43,-32
520411,-104687,-3906,-5468,2041,-63,43,-32
520413,-104687,-3906,-5468,2058,-64,43,-32
520414,-104687,-3906,-5468,2057,-64,43,-32
520416,-104687,-3906,-5468,2042,-65,43,-32
520417,-104687,-3906,-5468,2041,-65,43,-32
520419,-104687,-3906,-5468,2043,-66,43,-32
520420,-105468,-3125,-5468,2049,-66,43,-32
520422,-105468,-3125,-5468,2048,-66,43,-33
520423,-105468,-3125,-5468,2051,-66,43,-33
520425,-105468,-3125,-5468,2053,-67,43,-33
520426,-105468,-3125,-5468,2048,-67,43,-33
520428,-105468,-3125,-5468,2051,-67,43,-33
520429,-106250,-2343,-4687,2047,-67,43,-33
520431,-106250,-2343,-4687,2051,-68,43,-33
520432,-106250,-2343,-4687,2057,-68,43,-33
520434,-106250,-2343,-4687,2043,-68,43,-33
520435,-106250,-2343,-4687,2051,-69,43,-33
520437,-106250,-2343,-4687,2054,-69,43,-33
520439,-106250,-2343,-4687,2052,-69,43,-33
520441,-105468,-2343,-4687,2049,-70,43,-34
520443,-105468,-2343,-4687,2056,-70,43,-34
520445,-105468,-2343,-4687,2061,-70,43,-34
520447,-105468,-2343,-4687,2047,-71,44,-34
520449,-105468,-2343,-4687,2043,-71,44,-34
520451,-105468,-2343,-3906,2046,-72,44,-34
