timestamp,accX,accY,accZ,pressure,gyroX,gyroY,gyroZ
22730,-98437,13281,0,2031,-53,19,-43
22733,-98437,13281,0,2043,-53,19,-43
22735,-98437,13281,-781,2032,-53,19,-43
22737,-98437,13281,-781,2045,-53,19,-43
22738,-98437,13281,-781,2048,-53,19,-43
22740,-98437,13281,-781,2043,-53,19,-43
22742,-98437,13281,-781,2049,-52,19,-43
22744,-98437,13281,-781,2037,-52,19,-43
22746,-98437,12500,-781,2046,-52,19,-43
22748,-98437,12500,-781,2047,-52,19,-43
22750,-98437,12500,-781,2046,-52,19,-43
22752,-98437,12500,-781,2038,-52,19,-43
22754,-98437,12500,-781,2045,-52,19,-43
22756,-99218,11718,-781,2041,-52,19,-43
22758,-99218,11718,-781,2038,-52,19,-43
22760,-99218,11718,-781,2051,-52,19,-43
22762,-99218,11718,-781,2049,-52,19,-43
22764,-99218,11718,-781,2035,-51,19,-43
22766,-99218,12500,-781,2036,-51,19,-43
22768,-99218,12500,-781,2051,-51,19,-43
22770,-99218,12500,-781,2053,-52,19,-43
22772,-99218,12500,-781,2036,-51,19,-43
22774,-99218,12500,-781,2035,-51,19,-43
22776,-98437,12500,-781,2042,-51,19,-43
22778,-98437,12500,-781,2040,-51,19,-43
22780,-98437,12500,-781,2046,-51,19,-43
22782,-98437,12500,-781,2046,-51,19,-43
22784,-98437,12500,-781,2043,-51,19,-43
22786,-97656,13281,-781,2049,-51,19,-43
22788,-97656,13281,-781,2049,-50,19,-43
22790,-97656,13281,-781,2043,-50,19,-43
22792,-97656,13281,-781,2045,-50,18,-43
22794,-97656,13281,-781,2040,-50,18,-43
22796,-98437,14062,0,2048,-50,18,-43
22798,-98437,14062,0,2053,-50,18,-43
22800,-98437,14062,0,2051,-50,18,-43
22802,-98437,14062,0,2043,-50,18,-43
22804,-98437,14062,0,2053,-49,18,-43
22806,-98437,13281,0,2046,-49,18,-43
22808,-98437,13281,0,2040,-49,18,-43
22810,-98437,13281,0,2053,-49,18,-43
22812,-98437,13281,0,2041,-49,18,-43
22814,-98437,13281,0,2035,-49,18,-43
22816,-98437,12500,781,2038,-49,18,-43
22818,-98437,12500,781,2051,-49,18,-43
22820,-98437,12500,781,2038,-48,18,-43
22822,-98437,12500,781,2037,-48,18,-43
22824,-98437,12500,781,2032,-48,18,-43
22826,-98437,13281,0,2043,-48,18,-43
22828,-98437,13281,0,2041,-48,18,-43
22830,-98437,13281,0,2041,-48,18,-43
22832,-98437,13281,0,2033,-48,18,-43
22834,-98437,13281,0,2037,-48,19,-43
22836,-98437,12500,0,2041,-48,19,-43
22838,-98437,12500,0,2032,-48,19,-43
22840,-98437,12500,0,2038,-48,19,-43
22842,-98437,12500,0,2045,-47,19,-43
22844,-98437,12500,0,2040,-47,19,-43
22846,-98437,13281,0,2035,-47,19,-43
22848,-98437,13281,0,2033,-47,19,-43
22850,-98437,13281,0,2043,-47,19,-43
22852,-98437,13281,0,2049,-47,19,-43
22854,-98437,13281,0,2043,-47,19,-43
22856,-97656,13281,781,2046,-47,19,-43
22858,-97656,13281,781,2031,-47,19,-43
22860,-97656,13281,781,2038,-46,19,-43
22862,-97656,13281,781,2043,-46,19,-43
22864,-97656,13281,781,2035,-46,19,-43
22866,-97656,14062,781,2040,-46,19,-43
22868,-97656,14062,781,2040,-46,19,-43
22870,-97656,14062,781,2052,-46,19,-43
22872,-97656,14062,781,2041,-46,19,-43
22874,-97656,14062,781,2040,-45,19,-43
22876,-97656,14062,781,2047,-45,19,-43
22878,-98437,14843,0,2046,-45,19,-43
22880,-98437,14843,0,2040,-45,19,-43
22882,-98437,14843,0,2041,-45,19,-43
22884,-98437,14843,0,2032,-44,19,-43
22886,-98437,14843,0,2041,-44,19,-43
22888,-97656,14062,0,2041,-44,19,-43
22890,-97656,14062,0,2042,-44,19,-43
22892,-97656,14062,0,2035,-44,19,-43
22894,-97656,14062,0,2043,-44,19,-43
22896,-97656,14062,0,2040,-44,19,-43
22898,-97656,14062,-781,2042,-44,19,-43
22900,-97656,14062,-781,2042,-44,19,-43
22902,-97656,14062,-781,2042,-43,19,-43
22904,-97656,14062,-781,2040,-43,19,-43
22906,-97656,14062,-781,2041,-43,19,-43
22908,-97656,12500,781,2043,-43,19,-43
22910,-97656,12500,781,2036,-43,19,-43
22912,-97656,12500,781,2046,-43,19,-43
22914,-97656,12500,781,2049,-43,19,-43
22916,-97656,12500,781,2038,-42,19,-43
22918,-98437,14062,-781,2036,-42,19,-43
22920,-98437,14062,-781,2041,-42,19,-43
22922,-98437,14062,-781,2038,-42,19,-43
22924,-98437,14062,-781,2051,-42,19,-43
22926,-98437,14062,-781,2037,-42,19,-43
22928,-97656,12500,0,2047,-41,19,-43
22930,-97656,12500,0,2045,-41,19,-43
22932,-97656,12500,0,2036,-41,18,-43
22934,-97656,12500,0,2033,-41,18,-43
22936,-97656,12500,0,2040,-41,18,-43
22938,-97656,12500,0,2036,-40,19,-43
22940,-97656,12500,0,2041,-40,19,-43
22942,-97656,12500,0,2045,-40,19,-43
22944,-97656,12500,0,2045,-40,19,-43
22946,-97656,12500,0,2045,-40,19,-43
22998,-99218,14062,0,2035,-37,21,-42
23000,-99218,14062,0,2036,-37,21,-42
23001,-99218,14062,0,2031,-37,21,-42
23003,-99218,14062,0,2048,-37,21,-42
23004,-99218,14062,0,2042,-37,21,-42
23006,-99218,14062,0,2041,-37,21,-42
23007,-99218,14062,0,2046,-37,21,-42
23009,-98437,14843,-781,2038,-37,21,-42
23010,-98437,14843,-781,2037,-37,21,-42
23012,-98437,14843,-781,2041,-36,21,-42
23013,-98437,14843,-781,2040,-36,20,-42
23015,-98437,14843,-781,2053,-36,20,-42
23016,-98437,14843,-781,2032,-36,20,-42
23018,-98437,14843,-1562,2041,-36,20,-41
23019,-98437,14843,-1562,2043,-36,20,-41
23021,-98437,14843,-1562,2038,-36,20,-42
23022,-98437,14843,-1562,2038,-36,20,-42
23024,-98437,14843,-1562,2038,-36,20,-42
23025,-98437,14843,-1562,2037,-35,20,-41
23027,-98437,14843,-1562,2037,-35,20,-41
23028,-97656,13281,0,2035,-35,20,-41
23030,-97656,13281,0,2043,-35,20,-41
23031,-97656,13281,0,2038,-35,20,-42
23033,-97656,13281,0,2047,-35,20,-42
23034,-97656,13281,0,2033,-35,20,-41
23036,-97656,13281,0,2042,-35,20,-41
23037,-97656,13281,0,2038,-35,20,-41
23039,-99218,13281,0,2046,-35,20,-41
23040,-99218,13281,0,2040,-35,20,-41
23042,-99218,13281,0,2035,-35,20,-42
23043,-99218,13281,0,2051,-34,20,-42
23045,-99218,13281,0,2041,-34,20,-42
23046,-99218,13281,0,2036,-34,20,-42
23049,-98437,13281,0,2040,-34,19,-41
23051,-98437,13281,0,2033,-34,19,-41
23052,-98437,13281,0,2040,-34,19,-41
23054,-98437,13281,0,2031,-34,19,-41
23055,-98437,13281,0,2051,-34,19,-41
23057,-98437,13281,0,2038,-34,19,-41
23058,-97656,12500,-781,2047,-34,19,-41
23060,-97656,12500,-781,2041,-34,19,-42
23061,-97656,12500,-781,2040,-34,19,-42
23063,-97656,12500,-781,2033,-34,19,-42
23064,-97656,12500,-781,2031,-34,19,-42
23066,-97656,12500,-781,2049,-33,19,-42
23067,-97656,12500,-781,2037,-33,19,-42
23069,-98437,14062,0,2043,-33,19,-42
23070,-98437,14062,0,2031,-33,19,-41
23072,-98437,14062,0,2047,-33,19,-41
23073,-98437,14062,0,2032,-33,19,-41
23075,-98437,14062,0,2046,-33,19,-41
23076,-98437,14062,0,2041,-33,19,-41
23078,-98437,14062,0,2041,-33,19,-41
23079,-100000,14843,-1562,2049,-33,19,-41
23081,-100000,14843,-1562,2046,-33,20,-41
23082,-100000,14843,-1562,2042,-33,20,-41
23084,-100000,14843,-1562,2042,-33,20,-41
23085,-100000,14843,-1562,2052,-33,20,-41
23087,-100000,14843,-1562,2048,-33,20,-41
23088,-100000,14843,-1562,2033,-33,20,-41
23090,-98437,13281,-781,2036,-33,20,-41
23091,-98437,13281,-781,2035,-33,20,-41
23093,-98437,13281,-781,2041,-33,20,-42
23094,-98437,13281,-781,2046,-32,20,-42
23096,-98437,13281,-781,2041,-32,20,-42
23097,-98437,13281,-781,2037,-32,20,-42
23099,-98437,14062,-1562,2038,-32,20,-42
23100,-98437,14062,-1562,2041,-32,20,-42
23102,-98437,14062,-1562,2041,-32,20,-42
23103,-98437,14062,-1562,2049,-32,20,-42
23105,-98437,14062,-1562,2036,-32,20,-42
23107,-98437,14062,-1562,2043,-32,20,-42
23108,-98437,14062,-1562,2035,-31,20,-41
23110,-98437,12500,-2343,2048,-31,20,-41
23111,-98437,12500,-2343,2046,-31,20,-41
23114,-98437,12500,-2343,2033,-31,20,-41
23116,-98437,12500,-2343,2051,-31,20,-41
23117,-98437,12500,-2343,2061,-31,20,-41
23119,-98437,11718,0,2049,-31,20,-41
23120,-98437,11718,0,2043,-31,20,-41
23122,-98437,11718,0,2032,-31,21,-41
23123,-98437,11718,0,2040,-31,21,-41
23125,-98437,11718,0,2035,-31,21,-41
23126,-98437,11718,0,2036,-31,21,-41
23128,-98437,11718,0,2047,-31,21,-41
23129,-99218,12500,-1562,2035,-31,21,-41
23131,-99218,12500,-1562,2048,-31,21,-41
23132,-99218,12500,-1562,2040,-31,21,-41
23134,-99218,12500,-1562,2041,-31,21,-41
23135,-99218,12500,-1562,2031,-30,21,-41
23137,-99218,12500,-1562,2040,-30,21,-41
23138,-99218,12500,-1562,2038,-30,21,-41
23140,-99218,14062,-2343,2053,-30,21,-41
23141,-99218,14062,-2343,2035,-30,21,-41
23143,-99218,14062,-2343,2046,-30,21,-41
23144,-99218,14062,-2343,2043,-30,21,-41
23146,-99218,14062,-2343,2043,-30,21,-41
23147,-99218,14062,-2343,2049,-30,21,-41
23149,-99218,14062,-2343,2033,-30,21,-41
23150,-100000,14062,-2343,2038,-29,21,-42
23152,-100000,14062,-2343,2040,-29,21,-42
23153,-100000,14062,-2343,2046,-29,21,-42
23155,-100000,14062,-2343,2043,-29,21,-42
23156,-100000,14062,-2343,2040,-29,21,-42
23158,-100000,14062,-2343,2040,-29,21,-42
23159,-99218,13281,-2343,2043,-29,21,-42
23162,-99218,13281,-2343,2033,-29,21,-42
23164,-99218,13281,-2343,2035,-29,21,-42
23165,-99218,13281,-2343,2041,-30,21,-42
23167,-99218,13281,-2343,2046,-29,21,-42
23168,-99218,13281,-2343,2042,-29,21,-42
23170,-98437,14062,-2343,2032,-29,21,-42
23172,-98437,14062,-2343,2042,-29,21,-42
23174,-98437,14062,-2343,2048,-29,21,-42
23176,-98437,14062,-2343,2041,-30,21,-42
23178,-98437,14062,-2343,2040,-30,21,-42
23180,-99218,14062,-781,2042,-30,21,-42
23182,-99218,14062,-781,2048,-30,21,-41
23184,-99218,14062,-781,2032,-30,21,-41
23186,-99218,14062,-781,2031,-30,21,-41
23188,-99218,14062,-781,2030,-30,21,-41
23190,-100000,13281,-3125,2031,-30,21,-41
23192,-100000,13281,-3125,2038,-30,21,-42
23194,-100000,13281,-3125,2042,-30,21,-42
23196,-100000,13281,-3125,2035,-30,21,-42
23198,-100000,13281,-3125,2031,-30,21,-41
23200,-100000,14062,-1562,2054,-30,21,-41
23202,-100000,14062,-1562,2038,-30,21,-41
23204,-100000,14062,-1562,2037,-30,21,-41
23206,-100000,14062,-1562,2033,-30,21,-42
23208,-100000,14062,-1562,2048,-30,21,-42
23210,-100000,13281,-2343,2037,-30,21,-42
23212,-100000,13281,-2343,2037,-30,21,-42
23214,-100000,13281,-2343,2035,-30,21,-42
23216,-100000,13281,-2343,2033,-30,21,-42
23218,-100000,13281,-2343,2043,-30,21,-42
23220,-100000,13281,-1562,2042,-30,21,-42
23222,-100000,13281,-1562,2036,-30,21,-42
23224,-100000,13281,-1562,2031,-31,21,-42
23226,-100000,13281,-1562,2040,-31,21,-42
23228,-100000,13281,-1562,2041,-31,21,-42
23230,-100000,14062,-3125,2041,-31,21,-42
23232,-100000,14062,-3125,2052,-31,21,-42
23234,-100000,14062,-3125,2036,-31,21,-42
23236,-100000,14062,-3125,2045,-31,21,-42
23238,-100000,14062,-3125,2054,-31,21,-42
23407,-100781,12500,-3125,2041,-40,22,-43
23408,-100781,12500,-3125,2032,-40,22,-43
23410,-100781,12500,-3125,2045,-41,22,-43
23411,-100781,12500,-3125,2045,-41,22,-43
23413,-100000,13281,-4687,2048,-41,22,-43
23414,-100000,13281,-4687,2041,-41,22,-43
23416,-100000,13281,-4687,2041,-41,22,-43
23417,-100000,13281,-4687,2046,-41,22,-44
23419,-100000,13281,-4687,2042,-41,22,-44
23420,-100000,13281,-4687,2043,-41,22,-44
23422,-100000,13281,-4687,2040,-41,22,-44
23423,-100000,14062,-4687,2051,-42,22,-44
23425,-100000,14062,-4687,2041,-42,22,-44
23426,-100000,14062,-4687,2052,-42,22,-44
23428,-100000,14062,-4687,2041,-42,22,-44
23429,-100000,14062,-4687,2030,-42,23,-44
23431,-100000,14062,-4687,2040,-42,23,-44
23432,-101562,13281,-3906,2043,-42,23,-44
23434,-101562,13281,-3906,2042,-43,22,-44
23435,-101562,13281,-3906,2036,-43,22,-44
23437,-101562,13281,-3906,2038,-43,22,-44
23438,-101562,13281,-3906,2051,-43,22,-44
23440,-101562,13281,-3906,2042,-43,22,-44
23441,-101562,13281,-3906,2041,-43,22,-44
23443,-100000,13281,-4687,2041,-44,22,-44
23444,-100000,13281,-4687,2036,-44,22,-44
23446,-100000,13281,-4687,2045,-44,22,-44
23447,-100000,13281,-4687,2041,-44,22,-44
23449,-100000,13281,-4687,2036,-44,22,-44
23450,-100000,13281,-4687,2042,-45,22,-44
23453,-100781,14062,-3125,2046,-45,22,-44
23455,-100781,14062,-3125,2042,-45,22,-44
23456,-100781,14062,-3125,2045,-45,22,-44
23458,-100781,14062,-3125,2038,-45,22,-44
23459,-100781,14062,-3125,2041,-45,22,-44
23461,-100781,14062,-3125,2045,-45,22,-44
23462,-100781,14062,-3125,2040,-46,22,-44
23464,-100781,14062,-3906,2046,-46,22,-44
23465,-100781,14062,-3906,2045,-46,22,-44
23467,-100781,14062,-3906,2038,-46,22,-44
23468,-100781,14062,-3906,2051,-46,22,-45
23470,-100781,14062,-3906,2042,-46,21,-45
23471,-100781,14062,-3906,2040,-46,21,-45
23473,-100781,14062,-3906,2031,-46,22,-45
23474,-100781,14062,-3906,2056,-46,22,-45
23476,-100781,14062,-3906,2047,-46,21,-44
23477,-100781,14062,-3906,2036,-46,21,-44
23479,-100781,14062,-3906,2040,-46,22,-44
23480,-100781,14062,-3906,2032,-47,22,-45
23482,-100781,14062,-3906,2043,-47,22,-45
23483,-100000,13281,-2343,2038,-47,22,-45
23485,-100000,13281,-2343,2031,-47,22,-45
23486,-100000,13281,-2343,2041,-47,22,-45
23488,-100000,13281,-2343,2045,-47,22,-45
23489,-100000,13281,-2343,2031,-47,21,-45
23491,-100000,13281,-2343,2045,-47,21,-45
23492,-100000,13281,-2343,2042,-48,21,-45
23494,-100781,14062,-2343,2046,-48,21,-45
23495,-100781,14062,-2343,2042,-48,21,-45
23497,-100781,14062,-2343,2035,-48,21,-45
23498,-100781,14062,-2343,2046,-48,21,-45
23500,-100781,14062,-2343,2041,-48,21,-45
23501,-100781,14062,-2343,2041,-48,21,-45
23503,-100781,14062,-2343,2040,-48,21,-45
23504,-101562,14062,-2343,2038,-49,21,-45
23506,-101562,14062,-2343,2056,-49,21,-45
23508,-101562,14062,-2343,2038,-49,21,-45
23509,-101562,14062,-2343,2045,-49,20,-45
23511,-101562,14062,-2343,2043,-49,20,-45
23512,-101562,14062,-2343,2037,-49,21,-45
23558,-100000,14843,-2343,2043,-52,20,-46
23560,-100000,14843,-2343,2035,-52,20,-46
23561,-100000,14843,-2343,2041,-52,20,-46
23563,-100000,14843,-2343,2033,-52,20,-46
23564,-100781,14843,-3125,2043,-52,20,-46
23566,-100781,14843,-3125,2033,-53,20,-45
23567,-100781,14843,-3125,2045,-53,20,-45
23569,-100781,14843,-3125,2043,-53,20,-45
23570,-100781,14843,-3125,2048,-53,20,-45
23572,-100781,14843,-3125,2041,-53,20,-45
23573,-100781,14843,-3125,2041,-53,20,-46
23575,-100000,14062,-3906,2041,-53,20,-46
23576,-100000,14062,-3906,2037,-53,20,-45
23578,-100000,14062,-3906,2031,-53,20,-45
23579,-100000,14062,-3906,2033,-54,20,-45
23581,-100000,14062,-3906,2036,-54,20,-45
23582,-100000,14062,-3906,2042,-54,20,-45
23584,-100000,14062,-3906,2037,-54,20,-45
23585,-100000,14843,-2343,2036,-54,20,-45
23587,-100000,14843,-2343,2043,-54,20,-45
23588,-100000,14843,-2343,2041,-54,20,-45
23590,-100000,14843,-2343,2045,-54,20,-45
23591,-100000,14843,-2343,2035,-55,20,-45
23593,-100000,14843,-2343,2036,-55,20,-45
23594,-100000,15625,-3125,2032,-55,20,-45
23596,-100000,15625,-3125,2040,-55,20,-45
23597,-100000,15625,-3125,2041,-55,20,-45
23599,-100000,15625,-3125,2042,-55,20,-45
23600,-100000,15625,-3125,2043,-55,20,-45
23603,-100000,15625,-3125,2047,-55,19,-45
23605,-100000,14843,-2343,2038,-55,20,-45
23606,-100000,14843,-2343,2033,-55,19,-45
23608,-100000,14843,-2343,2041,-55,19,-45
23609,-100000,14843,-2343,2033,-55,19,-45
23611,-100000,14843,-2343,2045,-56,19,-45
23612,-100000,14843,-2343,2037,-56,19,-45
23614,-100000,14843,-2343,2042,-56,19,-44
23615,-98437,14843,-3906,2040,-56,19,-44
23617,-98437,14843,-3906,2045,-56,19,-44
23618,-98437,14843,-3906,2045,-56,19,-45
23620,-98437,14843,-3906,2049,-56,19,-45
23621,-98437,14843,-3906,2051,-56,19,-45
23623,-98437,14843,-3906,2043,-56,20,-44
23624,-98437,14843,-3906,2041,-56,20,-45
23626,-99218,15625,-3125,2047,-57,20,-45
23627,-99218,15625,-3125,2045,-57,20,-45
23629,-99218,15625,-3125,2046,-57,20,-45
23630,-99218,15625,-3125,2041,-57,20,-45
23632,-99218,15625,-3125,2042,-57,20,-45
23633,-99218,15625,-3125,2046,-57,20,-45
23635,-99218,15625,-2343,2038,-57,20,-45
23636,-99218,15625,-2343,2041,-57,20,-45
23638,-99218,15625,-2343,2041,-57,20,-45
23639,-99218,15625,-2343,2042,-57,20,-44
23641,-99218,15625,-2343,2040,-57,20,-44
23642,-99218,15625,-2343,2047,-57,20,-44
23644,-99218,15625,-2343,2033,-57,20,-44
23645,-99218,14843,-2343,2033,-57,20,-44
23647,-99218,14843,-2343,2042,-57,20,-44
23648,-99218,14843,-2343,2048,-57,20,-44
23650,-99218,14843,-2343,2028,-57,20,-44
23651,-99218,14843,-2343,2042,-57,20,-44
23653,-99218,14843,-2343,2033,-58,20,-44
23654,-99218,14843,-2343,2041,-58,20,-44
23656,-98437,14062,-1562,2045,-58,20,-44
23658,-98437,14062,-1562,2040,-58,20,-44
23659,-98437,14062,-1562,2047,-58,20,-44
23661,-98437,14062,-1562,2047,-58,20,-44
23662,-98437,14062,-1562,2042,-58,20,-44
23664,-98437,14062,-1562,2033,-58,20,-44
23676,-99218,14062,-1562,2048,-59,20,-44
23677,-99218,14062,-1562,2046,-59,20,-44
23679,-99218,14062,-1562,2042,-59,20,-44
23680,-99218,14062,-1562,2042,-59,20,-44
23682,-99218,14062,-1562,2033,-59,20,-44
23683,-99218,14062,-1562,2045,-59,20,-44
23685,-99218,14062,-1562,2042,-59,20,-44
23686,-100000,15625,-2343,2048,-59,20,-44
23688,-100000,15625,-2343,2036,-59,20,-43
23689,-100000,15625,-2343,2045,-59,20,-43
23691,-100000,15625,-2343,2041,-59,20,-43
23692,-100000,15625,-2343,2035,-59,20,-43
23694,-100000,15625,-2343,2051,-59,20,-43
23695,-99218,14843,-1562,2042,-60,20,-43
23697,-99218,14843,-1562,2032,-60,20,-44
23698,-99218,14843,-1562,2038,-60,20,-44
23700,-99218,14843,-1562,2043,-60,20,-44
23701,-99218,14843,-1562,2041,-60,20,-44
23703,-99218,14843,-1562,2052,-60,20,-44
23704,-99218,14843,-1562,2046,-60,20,-44
23706,-100000,15625,-1562,2042,-60,20,-44
23707,-100000,15625,-1562,2033,-60,20,-43
23709,-100000,15625,-1562,2038,-60,20,-43
23710,-100000,15625,-1562,2036,-60,20,-43
23712,-100000,15625,-1562,2041,-60,19,-43
23713,-100000,15625,-1562,2043,-60,19,-43
23715,-100000,15625,-1562,2040,-60,20,-43
23716,-99218,14843,-2343,2042,-60,20,-43
23718,-99218,14843,-2343,2042,-60,20,-43
23719,-99218,14843,-2343,2043,-60,20,-43
23722,-99218,14843,-2343,2043,-60,20,-43
23724,-99218,14843,-2343,2045,-60,20,-43
23725,-99218,14843,-2343,2041,-60,20,-43
23727,-99218,14843,-1562,2040,-60,20,-43
23728,-99218,14843,-1562,2038,-60,20,-43
23730,-99218,14843,-1562,2045,-60,20,-43
23731,-99218,14843,-1562,2043,-60,20,-43
23733,-99218,14843,-1562,2035,-60,20,-43
23734,-99218,14843,-1562,2053,-60,20,-43
23736,-98437,14843,-1562,2045,-60,19,-43
23737,-98437,14843,-1562,2043,-60,19,-43
23739,-98437,14843,-1562,2048,-60,19,-43
23740,-98437,14843,-1562,2042,-60,19,-42
23742,-98437,14843,-1562,2041,-60,19,-42
23743,-98437,14843,-1562,2042,-60,19,-42
23745,-98437,14843,-1562,2042,-60,19,-42
23746,-98437,15625,-1562,2042,-60,19,-42
23748,-98437,15625,-1562,2043,-60,19,-42
23749,-98437,15625,-1562,2038,-60,20,-42
23751,-98437,15625,-1562,2041,-60,20,-42
23752,-98437,15625,-1562,2041,-60,20,-42
23754,-98437,15625,-1562,2038,-60,20,-42
23755,-98437,15625,-1562,2037,-60,20,-42
23757,-97656,14062,-2343,2042,-60,20,-42
23758,-97656,14062,-2343,2040,-60,20,-42
23760,-97656,14062,-2343,2037,-60,20,-42
23761,-97656,14062,-2343,2040,-60,19,-42
23763,-97656,14062,-2343,2045,-60,19,-42
23764,-97656,14062,-2343,2051,-60,19,-42
23766,-97656,14062,-2343,2053,-60,19,-42
23767,-99218,15625,-1562,2038,-60,19,-42
23769,-99218,15625,-1562,2047,-60,19,-42
23770,-99218,15625,-1562,2041,-60,20,-42
23772,-99218,15625,-1562,2032,-60,20,-42
23773,-99218,15625,-1562,2035,-60,20,-42
23775,-99218,15625,-1562,2052,-60,20,-42
23777,-97656,14062,-2343,2033,-60,20,-42
23778,-97656,14062,-2343,2053,-60,20,-42
23780,-97656,14062,-2343,2043,-60,20,-42
23781,-97656,14062,-2343,2036,-60,20,-42
23783,-97656,14062,-2343,2040,-60,20,-42
23796,-98437,14843,-2343,2040,-61,20,-41
23797,-98437,15625,-1562,2047,-61,20,-41
23799,-98437,15625,-1562,2042,-61,20,-41
23800,-98437,15625,-1562,2049,-61,21,-41
23802,-98437,15625,-1562,2040,-61,21,-41
23803,-98437,15625,-1562,2048,-61,21,-41
23805,-98437,15625,-1562,2043,-61,21,-41
23806,-98437,15625,-1562,2043,-61,21,-41
23808,-98437,15625,-781,2042,-61,21,-41
23809,-98437,15625,-781,2045,-61,21,-41
23811,-98437,15625,-781,2047,-60,21,-41
23812,-98437,15625,-781,2042,-60,21,-41
23814,-98437,15625,-781,2032,-60,21,-41
23815,-98437,15625,-781,2031,-60,21,-41
23817,-97656,15625,-1562,2035,-60,21,-41
23818,-97656,15625,-1562,2051,-60,21,-41
23820,-97656,15625,-1562,2048,-60,21,-41
23821,-97656,15625,-1562,2042,-60,21,-41
23823,-97656,15625,-1562,2038,-60,21,-41
23824,-97656,15625,-1562,2041,-60,21,-41
23826,-97656,15625,-1562,2045,-60,21,-41
23827,-97656,16406,-1562,2045,-60,21,-41
23829,-97656,16406,-1562,2035,-60,21,-40
23830,-97656,16406,-1562,2041,-60,21,-40
23832,-97656,16406,-1562,2036,-60,21,-40
23833,-97656,16406,-1562,2038,-60,21,-40
23835,-97656,16406,-1562,2043,-60,21,-40
23836,-97656,16406,-1562,2037,-60,21,-40
23838,-98437,16406,-2343,2031,-60,21,-40
23839,-98437,16406,-2343,2038,-60,21,-40
23841,-98437,16406,-2343,2031,-60,21,-40
23842,-98437,16406,-2343,2045,-60,21,-40
23844,-98437,16406,-2343,2046,-60,21,-40
23845,-98437,16406,-2343,2048,-60,21,-40
23847,-98437,16406,-2343,2030,-60,21,-40
23848,-96875,15625,-1562,2040,-61,21,-40
23850,-96875,15625,-1562,2037,-60,21,-40
23852,-96875,15625,-1562,2051,-60,21,-40
23853,-96875,15625,-1562,2043,-61,21,-40
23855,-96875,15625,-1562,2045,-61,22,-39
23856,-96875,15625,-1562,2046,-61,22,-39
23858,-97656,16406,0,2051,-61,22,-39
23859,-97656,16406,0,2037,-61,22,-39
23861,-97656,16406,0,2038,-61,22,-39
23862,-97656,16406,0,2048,-61,22,-39
23864,-97656,16406,0,2037,-61,22,-39
23865,-97656,16406,0,2040,-61,21,-39
23867,-97656,16406,0,2041,-61,22,-39
23868,-97656,14843,-1562,2047,-61,21,-39
23870,-97656,14843,-1562,2047,-61,21,-39
23871,-97656,14843,-1562,2045,-61,21,-38
23873,-97656,14843,-1562,2037,-61,21,-38
23874,-97656,14843,-1562,2041,-61,21,-38
23876,-97656,14843,-1562,2041,-61,21,-38
23877,-97656,14843,-1562,2048,-61,21,-38
23879,-97656,15625,-781,2048,-61,21,-38
23880,-97656,15625,-781,2038,-61,21,-38
23882,-97656,15625,-781,2033,-61,21,-38
23883,-97656,15625,-781,2035,-61,21,-38
23885,-97656,15625,-781,2033,-61,21,-38
23886,-97656,15625,-781,2045,-61,21,-38
23888,-96875,15625,-781,2036,-61,21,-38
23889,-96875,15625,-781,2052,-61,22,-38
23891,-96875,15625,-781,2041,-61,22,-38
23892,-96875,15625,-781,2048,-61,22,-38
23894,-96875,15625,-781,2040,-61,22,-38
23895,-96875,15625,-781,2036,-61,22,-38
23898,-97656,15625,-1562,2048,-61,22,-38
23900,-97656,15625,-1562,2049,-61,22,-38
23901,-97656,15625,-1562,2043,-61,22,-38
23903,-97656,15625,-1562,2046,-60,22,-38
23904,-97656,15625,-1562,2041,-60,22,-38
23906,-97656,15625,-1562,2036,-60,22,-38
23921,-97656,16406,-781,2033,-60,22,-37
23922,-97656,16406,-781,2043,-60,22,-37
23924,-97656,16406,-781,2037,-60,22,-37
23925,-97656,16406,-781,2042,-60,22,-37
23927,-97656,16406,-781,2041,-60,22,-37
23928,-96875,15625,-1562,2038,-60,22,-37
23930,-96875,15625,-1562,2038,-60,23,-37
23931,-96875,15625,-1562,2036,-60,23,-37
23933,-96875,15625,-1562,2033,-60,23,-37
23934,-96875,15625,-1562,2038,-60,23,-36
23936,-96875,15625,-1562,2043,-60,23,-36
23937,-96875,15625,-1562,2045,-60,23,-36
23939,-96875,14843,-781,2031,-60,23,-36
23940,-96875,14843,-781,2038,-60,23,-36
23942,-96875,14843,-781,2043,-60,24,-35
23943,-96875,14843,-781,2036,-60,24,-35
23945,-96875,14843,-781,2048,-60,24,-35
23946,-96875,14843,-781,2031,-60,24,-36
23948,-96875,14843,-781,2032,-60,23,-36
23949,-97656,16406,-781,2036,-60,23,-36
23951,-97656,16406,-781,2035,-60,23,-36
23952,-97656,16406,-781,2043,-59,24,-36
23954,-97656,16406,-781,2051,-59,24,-35
23955,-97656,16406,-781,2037,-59,24,-35
23957,-97656,16406,-781,2035,-59,23,-35
23958,-97656,17187,-1562,2040,-59,24,-35
23960,-97656,17187,-1562,2051,-59,24,-35
23961,-97656,17187,-1562,2041,-59,24,-35
23963,-97656,17187,-1562,2041,-59,24,-35
23964,-97656,17187,-1562,2033,-59,24,-35
23966,-97656,17187,-1562,2041,-59,24,-35
23967,-97656,17187,-1562,2043,-59,24,-35
23969,-97656,15625,-781,2035,-59,24,-35
23970,-97656,15625,-781,2041,-59,24,-35
23972,-97656,15625,-781,2040,-59,23,-35
23973,-97656,15625,-781,2041,-59,23,-35
23976,-97656,15625,-781,2037,-59,23,-35
23978,-97656,15625,-781,2042,-59,23,-35
23979,-96875,16406,-781,2041,-59,23,-35
23981,-96875,16406,-781,2049,-59,23,-35
23982,-96875,16406,-781,2038,-59,23,-35
23984,-96875,16406,-781,2038,-59,23,-34
23985,-96875,16406,-781,2036,-59,23,-34
23987,-96875,16406,-781,2038,-59,23,-35
23988,-96875,16406,-781,2035,-59,23,-35
23990,-97656,16406,-2343,2046,-59,23,-34
23991,-97656,16406,-2343,2041,-59,23,-34
23993,-97656,16406,-2343,2040,-59,23,-34
23994,-97656,16406,-2343,2042,-59,23,-34
23996,-97656,16406,-2343,2033,-59,23,-34
23997,-97656,16406,-2343,2037,-59,23,-34
23999,-97656,16406,-3906,2040,-59,23,-34
24000,-97656,16406,-3906,2037,-59,23,-34
24002,-97656,16406,-3906,2040,-59,23,-34
24003,-97656,16406,-3906,2031,-59,23,-34
24005,-97656,16406,-3906,2035,-59,23,-34
24006,-97656,16406,-3906,2036,-59,23,-34
24008,-97656,16406,-3906,2031,-59,23,-34
24009,-96875,14843,-3125,2032,-59,23,-34
24011,-96875,14843,-3125,2041,-59,23,-33
24012,-96875,14843,-3125,2033,-59,23,-33
24014,-96875,14843,-3125,2036,-59,23,-33
24015,-96875,14843,-3125,2040,-59,23,-33
24017,-96875,14843,-3125,2041,-59,23,-33
24018,-96875,14843,-3125,2028,-59,23,-33
24020,-96875,16406,-2343,2046,-59,23,-33
24021,-96875,16406,-2343,2035,-59,23,-34
24023,-96875,16406,-2343,2031,-58,23,-33
24024,-96875,16406,-2343,2033,-58,23,-33
24026,-96875,16406,-2343,2035,-58,23,-33
24027,-96875,16406,-2343,2040,-58,23,-33
24068,-97656,16406,-781,2043,-58,23,-31
24069,-97656,16406,-3125,2042,-59,23,-31
24071,-97656,16406,-3125,2038,-59,23,-31
24072,-97656,16406,-3125,2040,-59,23,-31
24074,-97656,16406,-3125,2031,-59,24,-31
24075,-97656,16406,-3125,2041,-59,24,-31
24077,-97656,16406,-3125,2032,-59,24,-31
24078,-97656,16406,-3125,2028,-59,24,-31
24080,-97656,16406,-781,2040,-59,24,-30
24081,-97656,16406,-781,2048,-59,24,-30
24083,-97656,16406,-781,2041,-59,24,-30
24084,-97656,16406,-781,2048,-59,24,-30
24086,-97656,16406,-781,2035,-59,25,-30
24087,-97656,16406,-781,2033,-58,25,-30
24089,-97656,16406,-781,2041,-58,25,-30
24090,-97656,17187,-1562,2031,-58,25,-30
24092,-97656,17187,-1562,2036,-58,25,-30
24093,-97656,17187,-1562,2041,-58,25,-30
24095,-97656,17187,-1562,2043,-58,25,-30
24096,-97656,17187,-1562,2038,-58,25,-30
24098,-97656,17187,-1562,2038,-58,25,-29
24099,-97656,17187,-1562,2040,-58,25,-29
24101,-96093,16406,-3125,2033,-58,25,-29
24102,-96093,16406,-3125,2038,-58,25,-29
24104,-96093,16406,-3125,2051,-58,25,-29
24105,-96093,16406,-3125,2035,-58,25,-29
24107,-96093,16406,-3125,2041,-58,25,-29
24108,-96093,16406,-3125,2041,-58,25,-29
24110,-96093,16406,-3125,2049,-58,25,-29
24111,-96875,17187,-2343,2036,-58,25,-29
24113,-96875,17187,-2343,2035,-58,25,-29
24114,-96875,17187,-2343,2033,-58,25,-29
24116,-96875,17187,-2343,2036,-58,25,-29
24117,-96875,17187,-2343,2041,-58,25,-29
24119,-96875,17187,-2343,2041,-58,25,-29
24120,-97656,17187,-1562,2031,-58,25,-28
24123,-97656,17187,-1562,2036,-58,25,-28
24125,-97656,17187,-1562,2032,-58,25,-28
24126,-97656,17187,-1562,2043,-58,25,-28
24128,-97656,17187,-1562,2038,-58,25,-28
24129,-97656,17187,-1562,2048,-58,25,-28
24131,-97656,16406,-3125,2043,-58,24,-28
24132,-97656,16406,-3125,2035,-58,24,-28
24134,-97656,16406,-3125,2040,-58,24,-28
24135,-97656,16406,-3125,2040,-58,24,-28
24137,-97656,16406,-3125,2042,-58,24,-28
24138,-97656,16406,-3125,2036,-58,24,-28
24140,-97656,16406,-3125,2036,-58,24,-28
24141,-97656,17187,-2343,2037,-58,24,-28
24143,-97656,17187,-2343,2036,-58,24,-28
24144,-97656,17187,-2343,2043,-58,24,-28
24146,-97656,17187,-2343,2040,-58,24,-28
24147,-97656,17187,-2343,2046,-58,24,-28
24149,-97656,17187,-2343,2040,-58,24,-28
24150,-97656,17187,-2343,2036,-58,24,-28
24152,-97656,16406,-1562,2032,-58,24,-28
24153,-97656,16406,-1562,2053,-58,24,-28
24155,-97656,16406,-1562,2042,-58,24,-28
24156,-97656,16406,-1562,2043,-58,24,-28
24158,-97656,16406,-1562,2033,-58,24,-28
24159,-97656,16406,-1562,2042,-58,24,-28
24161,-96875,17187,-781,2030,-58,24,-28
24162,-96875,17187,-781,2031,-58,24,-27
24164,-96875,17187,-781,2045,-58,24,-27
24165,-96875,17187,-781,2041,-58,24,-27
24167,-96875,17187,-781,2042,-58,24,-27
24168,-96875,17187,-781,2041,-58,24,-27
24170,-96875,17187,-781,2041,-58,24,-27
24171,-96875,17187,-1562,2042,-58,24,-27
24173,-96875,17187,-1562,2043,-58,24,-27
24174,-96875,17187,-1562,2038,-59,24,-27
24176,-96875,17187,-1562,2041,-59,24,-27
24203,-97656,17968,-2343,2036,-59,25,-26
24204,-97656,17968,-2343,2041,-59,25,-26
24206,-97656,17968,-2343,2043,-59,25,-26
24207,-97656,17968,-2343,2037,-59,25,-26
24209,-97656,17968,-2343,2048,-58,25,-26
24210,-97656,17968,-2343,2040,-58,25,-26
24212,-97656,17187,-1562,2047,-58,25,-26
24213,-97656,17187,-1562,2049,-58,25,-26
24215,-97656,17187,-1562,2036,-58,25,-26
24216,-97656,17187,-1562,2041,-58,25,-25
24218,-97656,17187,-1562,2042,-58,25,-25
24219,-97656,17187,-1562,2041,-58,25,-25
24221,-97656,17187,-1562,2040,-58,25,-25
24222,-98437,16406,-1562,2049,-58,25,-25
24224,-98437,16406,-1562,2045,-58,25,-25
24225,-98437,16406,-1562,2048,-58,25,-25
24227,-98437,16406,-1562,2046,-59,25,-25
24228,-98437,16406,-1562,2051,-59,25,-25
24230,-98437,16406,-1562,2041,-59,25,-25
24231,-98437,17187,-2343,2041,-58,25,-25
24233,-98437,17187,-2343,2038,-59,25,-25
24234,-98437,17187,-2343,2037,-59,25,-25
24236,-98437,17187,-2343,2038,-59,25,-25
24237,-98437,17187,-2343,2045,-59,25,-25
24239,-98437,17187,-2343,2037,-59,25,-25
24240,-98437,17187,-2343,2036,-59,25,-25
24242,-98437,17187,-2343,2037,-59,25,-25
24243,-98437,17187,-2343,2041,-59,25,-25
24245,-98437,17187,-2343,2038,-59,25,-24
24246,-98437,17187,-2343,2041,-59,25,-24
24248,-98437,17187,-2343,2042,-59,25,-24
24249,-98437,17187,-2343,2042,-59,25,-24
24251,-98437,17187,-2343,2051,-59,25,-24
24252,-96875,17187,-2343,2041,-59,25,-24
24254,-96875,17187,-2343,2030,-59,25,-24
24255,-96875,17187,-2343,2037,-59,25,-24
24257,-96875,17187,-2343,2031,-59,25,-24
24259,-96875,17187,-2343,2035,-59,25,-23
24260,-96875,17187,-2343,2048,-59,25,-23
24262,-98437,17968,-781,2035,-59,25,-23
24263,-98437,17968,-781,2036,-59,25,-23
24265,-98437,17968,-781,2048,-59,25,-23
24266,-98437,17968,-781,2052,-59,25,-23
24268,-98437,17968,-781,2042,-59,25,-23
24269,-98437,17968,-781,2047,-59,25,-23
24271,-98437,17968,-781,2042,-59,25,-23
24272,-98437,17187,-2343,2043,-59,25,-23
24274,-98437,17187,-2343,2048,-59,25,-23
24275,-98437,17187,-2343,2047,-59,24,-22
24277,-98437,17187,-2343,2037,-59,24,-22
24278,-98437,17187,-2343,2046,-59,24,-22
24280,-98437,17187,-2343,2045,-59,24,-22
24281,-98437,17187,-2343,2048,-58,24,-22
24283,-97656,17187,-2343,2045,-58,24,-22
24284,-97656,17187,-2343,2037,-58,24,-22
24286,-97656,17187,-2343,2035,-58,24,-22
24287,-97656,17187,-2343,2040,-59,24,-21
24289,-97656,17187,-2343,2041,-59,24,-21
24290,-97656,17187,-2343,2041,-59,24,-21
24292,-97656,17187,-2343,2033,-59,24,-22
24293,-99218,17968,-2343,2036,-59,24,-21
24295,-99218,17968,-2343,2043,-59,24,-21
24296,-99218,17968,-2343,2056,-59,24,-21
24298,-99218,17968,-2343,2033,-59,24,-21
24299,-99218,17968,-2343,2033,-58,24,-21
24301,-99218,17968,-2343,2046,-58,24,-21
24302,-99218,17187,-2343,2035,-59,24,-21
24304,-99218,17187,-2343,2036,-58,24,-21
24305,-99218,17187,-2343,2035,-58,24,-21
24307,-99218,17187,-2343,2037,-58,24,-21
24308,-99218,17187,-2343,2041,-58,24,-21
24311,-99218,17187,-2343,2036,-58,24,-21
24374,-98437,17187,-2343,2041,-60,23,-19
24376,-98437,17187,-2343,2033,-60,23,-19
24377,-98437,17187,-2343,2035,-60,23,-19
24379,-98437,17187,-2343,2049,-60,23,-19
24380,-98437,17187,-2343,2043,-60,23,-18
24382,-98437,17187,-2343,2032,-60,23,-18
24383,-99218,17968,-1562,2046,-60,23,-18
24385,-99218,17968,-1562,2040,-60,23,-18
24386,-99218,17968,-1562,2032,-60,23,-18
24388,-99218,17968,-1562,2047,-60,23,-18
24389,-99218,17968,-1562,2041,-60,23,-18
24391,-99218,17968,-1562,2035,-60,23,-18
24392,-99218,17968,-1562,2041,-60,23,-18
24394,-99218,16406,-781,2041,-60,23,-18
24395,-99218,16406,-781,2028,-60,23,-18
24397,-99218,16406,-781,2046,-60,23,-18
24398,-99218,16406,-781,2041,-60,23,-18
24400,-99218,16406,-781,2038,-60,23,-18
24401,-99218,16406,-781,2038,-60,23,-18
24403,-99218,16406,-781,2049,-60,23,-18
24404,-99218,17968,-1562,2041,-60,23,-18
24406,-99218,17968,-1562,2048,-60,23,-18
24407,-99218,17968,-1562,2041,-60,23,-18
24409,-99218,17968,-1562,2051,-59,23,-18
24410,-99218,17968,-1562,2041,-59,23,-18
24412,-99218,17968,-1562,2041,-60,23,-18
24413,-99218,17968,-1562,2047,-60,23,-18
24415,-99218,17187,-781,2048,-60,23,-17
24416,-99218,17187,-781,2041,-60,23,-17
24418,-99218,17187,-781,2048,-60,23,-17
24419,-99218,17187,-781,2040,-60,23,-17
24421,-99218,17187,-781,2033,-60,23,-17
24422,-99218,17187,-781,2036,-60,23,-17
24424,-99218,17187,-1562,2045,-60,23,-17
24425,-99218,17187,-1562,2035,-60,23,-17
24427,-99218,17187,-1562,2033,-60,23,-17
24430,-99218,17187,-1562,2040,-60,23,-17
24431,-99218,17187,-1562,2041,-60,23,-17
24433,-99218,17187,-1562,2037,-60,23,-17
24434,-98437,17187,-1562,2047,-60,23,-17
24436,-98437,17187,-1562,2038,-60,23,-17
24437,-98437,17187,-1562,2040,-60,23,-17
24439,-98437,17187,-1562,2035,-60,23,-17
24440,-98437,17187,-1562,2046,-60,23,-17
24442,-98437,17187,-1562,2045,-60,23,-17
24443,-98437,17187,-1562,2043,-60,23,-17
24445,-99218,17187,-3125,2046,-60,23,-17
24446,-99218,17187,-3125,2047,-61,23,-17
24448,-99218,17187,-3125,2045,-61,23,-17
24449,-99218,17187,-3125,2045,-61,23,-17
24451,-99218,17187,-3125,2045,-61,23,-17
24452,-99218,17187,-3125,2038,-61,23,-17
24454,-99218,17187,-3125,2033,-61,23,-16
24455,-99218,17968,-3125,2037,-61,23,-16
24457,-99218,17968,-3125,2041,-61,23,-16
24458,-99218,17968,-3125,2040,-61,23,-16
24460,-99218,17968,-3125,2043,-61,23,-16
24461,-99218,17968,-3125,2046,-61,23,-16
24463,-99218,17968,-3125,2041,-61,23,-16
24464,-100000,17187,-1562,2041,-61,23,-16
24466,-100000,17187,-1562,2033,-61,23,-16
24467,-100000,17187,-1562,2040,-61,23,-16
24469,-100000,17187,-1562,2036,-61,23,-16
24470,-100000,17187,-1562,2038,-61,23,-16
24472,-100000,17187,-1562,2033,-61,23,-16
24473,-100000,17187,-1562,2041,-61,23,-16
24475,-100000,17968,-2343,2037,-61,23,-16
24476,-100000,17968,-2343,2031,-61,23,-16
24478,-100000,17968,-2343,2045,-61,23,-16
24479,-100000,17968,-2343,2032,-61,23,-16
24481,-100000,17968,-2343,2036,-61,23,-16
24500,-100781,17187,-1562,2042,-61,22,-15
24502,-100781,17187,-1562,2041,-61,22,-15
24503,-100781,17187,-1562,2048,-61,22,-15
24505,-100000,17187,-2343,2033,-61,22,-15
24506,-100000,17187,-2343,2031,-61,22,-15
24508,-100000,17187,-2343,2048,-61,22,-15
24509,-100000,17187,-2343,2041,-61,22,-15
24511,-100000,17187,-2343,2043,-61,22,-15
24512,-100000,17187,-2343,2041,-61,22,-15
24514,-100000,17187,-2343,2041,-61,22,-15
24515,-100781,15625,-2343,2036,-61,22,-15
24517,-100781,15625,-2343,2041,-61,22,-15
24518,-100781,15625,-2343,2056,-61,23,-15
24520,-100781,15625,-2343,2042,-61,23,-15
24521,-100781,15625,-2343,2038,-61,23,-15
24523,-100781,15625,-2343,2030,-61,22,-15
24524,-100781,15625,-2343,2046,-61,22,-15
24526,-100000,17187,-1562,2032,-61,22,-15
24527,-100000,17187,-1562,2030,-61,22,-15
24529,-100000,17187,-1562,2043,-62,22,-15
24530,-100000,17187,-1562,2033,-62,22,-15
24532,-100000,17187,-1562,2038,-62,22,-15
24533,-100000,17187,-1562,2040,-62,22,-15
24535,-100781,15625,-1562,2047,-62,22,-15
24536,-100781,15625,-1562,2037,-62,22,-15
24538,-100781,15625,-1562,2037,-62,22,-15
24539,-100781,15625,-1562,2038,-62,22,-15
24541,-100781,15625,-1562,2047,-62,23,-15
24542,-100781,15625,-1562,2045,-62,23,-15
24544,-100781,15625,-1562,2035,-62,23,-15
24545,-100781,16406,-2343,2046,-62,23,-15
24547,-100781,16406,-2343,2045,-62,23,-15
24548,-100781,16406,-2343,2043,-62,23,-15
24550,-100781,16406,-2343,2036,-62,23,-15
24551,-100781,16406,-2343,2046,-62,23,-15
24553,-100781,16406,-2343,2043,-62,23,-15
24555,-100781,16406,-2343,2037,-62,23,-14
24556,-101562,15625,-3906,2041,-62,23,-14
24558,-101562,15625,-3906,2040,-62,23,-14
24559,-101562,15625,-3906,2051,-63,23,-14
24561,-101562,15625,-3906,2046,-63,23,-14
24562,-101562,15625,-3906,2041,-63,23,-14
24564,-101562,15625,-3906,2045,-63,23,-14
24565,-100781,15625,-3125,2038,-63,23,-14
24567,-100781,15625,-3125,2042,-63,23,-14
24568,-100781,15625,-3125,2041,-63,23,-14
24570,-100781,15625,-3125,2051,-63,23,-14
24571,-100781,15625,-3125,2035,-63,23,-14
24573,-100781,15625,-3125,2045,-63,23,-14
24574,-100781,15625,-3125,2054,-63,23,-14
24576,-101562,14843,-1562,2038,-64,23,-14
24577,-101562,14843,-1562,2033,-64,24,-14
24579,-101562,14843,-1562,2046,-64,24,-14
24580,-101562,14843,-1562,2040,-64,24,-14
24582,-101562,14843,-1562,2043,-64,24,-14
24583,-101562,14843,-1562,2042,-64,24,-14
24585,-101562,14843,-1562,2031,-64,24,-14
24586,-101562,14843,-1562,2046,-64,24,-14
24588,-101562,14843,-1562,2045,-64,24,-14
24589,-101562,14843,-1562,2047,-64,24,-14
24591,-101562,14843,-1562,2046,-64,24,-14
24592,-101562,14843,-1562,2037,-64,24,-14
24594,-101562,14843,-1562,2040,-64,24,-14
24595,-101562,14843,-1562,2037,-64,24,-14
24597,-100781,15625,-2343,2047,-64,24,-14
24598,-100781,15625,-2343,2053,-64,24,-14
24600,-100781,15625,-2343,2040,-64,24,-14
24601,-100781,15625,-2343,2043,-64,24,-14
24603,-100781,15625,-2343,2041,-64,24,-14
24604,-100781,15625,-2343,2047,-64,24,-14
24843,-102343,12500,-1562,2051,-78,35,-18
24845,-102343,12500,-1562,2043,-78,35,-18
24847,-102343,12500,-1562,2042,-78,35,-18
24848,-102343,12500,-1562,2045,-78,35,-18
24850,-102343,11718,0,2043,-78,36,-18
24851,-102343,11718,0,2038,-78,36,-18
24853,-102343,11718,0,2036,-78,36,-18
24854,-102343,11718,0,2042,-78,36,-19
24856,-102343,11718,0,2047,-78,36,-18
24857,-102343,11718,0,2035,-78,36,-18
24859,-101562,11718,-1562,2032,-78,36,-18
24860,-101562,11718,-1562,2043,-78,36,-19
24862,-101562,11718,-1562,2041,-78,36,-19
24863,-101562,11718,-1562,2042,-78,36,-19
24865,-101562,11718,-1562,2033,-78,36,-19
24866,-101562,11718,-1562,2049,-78,37,-19
24868,-101562,11718,-1562,2047,-78,37,-19
24869,-102343,12500,-781,2038,-78,37,-19
24871,-102343,12500,-781,2045,-78,37,-19
24872,-102343,12500,-781,2051,-78,37,-19
24874,-102343,12500,-781,2048,-78,37,-19
24875,-102343,12500,-781,2051,-78,37,-19
24877,-102343,12500,-781,2043,-78,37,-19
24878,-102343,12500,-781,2040,-78,37,-19
24880,-102343,12500,-1562,2036,-78,37,-19
24881,-102343,12500,-1562,2042,-78,37,-19
24883,-102343,12500,-1562,2042,-78,37,-19
24884,-102343,12500,-1562,2041,-78,37,-19
24886,-102343,12500,-1562,2047,-78,37,-19
24887,-102343,12500,-1562,2037,-78,37,-19
24889,-101562,11718,0,2043,-78,37,-19
24890,-101562,11718,0,2037,-78,37,-19
24892,-101562,11718,0,2040,-78,37,-19
24893,-101562,11718,0,2041,-79,37,-20
24895,-101562,11718,0,2031,-79,38,-20
24896,-101562,11718,0,2045,-79,38,-19
24898,-101562,11718,0,2042,-79,38,-20
24900,-101562,11718,0,2048,-79,38,-20
24901,-101562,11718,0,2041,-79,38,-20
24903,-101562,11718,0,2047,-79,38,-20
24904,-101562,11718,0,2043,-79,38,-20
24906,-101562,11718,0,2046,-79,38,-20
24907,-101562,11718,0,2051,-79,38,-20
24909,-101562,11718,0,2046,-79,38,-20
24910,-100781,13281,-781,2048,-79,38,-20
24912,-100781,13281,-781,2046,-79,38,-20
24913,-100781,13281,-781,2038,-79,38,-20
24915,-100781,13281,-781,2051,-79,38,-20
24916,-100781,13281,-781,2038,-79,38,-20
24918,-100781,13281,-781,2042,-79,38,-20
24919,-101562,11718,-781,2048,-79,38,-20
24921,-101562,11718,-781,2045,-79,38,-20
24922,-101562,11718,-781,2045,-79,38,-20
24924,-101562,11718,-781,2046,-79,38,-20
24925,-101562,11718,-781,2047,-79,38,-20
24927,-101562,11718,-781,2042,-79,39,-20
24928,-101562,11718,-781,2041,-79,39,-20
24930,-100781,10937,0,2043,-79,39,-20
24931,-100781,10937,0,2042,-79,39,-20
24933,-100781,10937,0,2041,-79,39,-20
24934,-100781,10937,0,2042,-79,39,-20
24936,-100781,10937,0,2048,-79,39,-20
24937,-100781,10937,0,2038,-79,39,-21
24939,-100781,10937,0,2041,-79,39,-21
24940,-100781,10937,0,2035,-79,39,-21
24942,-100781,10937,0,2046,-79,39,-21
24943,-100781,10937,0,2046,-79,39,-20
24945,-100781,10937,0,2032,-78,39,-20
24946,-100781,10937,0,2036,-78,39,-20
24948,-100781,10937,0,2041,-78,40,-20
24949,-100781,10937,0,2035,-78,40,-20
24951,-100781,11718,0,2038,-78,40,-20
24952,-100781,11718,0,2030,-78,40,-20
24955,-100781,11718,0,2032,-78,40,-20
24987,-100781,11718,0,2038,-77,40,-21
24989,-100781,11718,0,2031,-77,40,-21
24991,-100781,12500,781,2041,-77,40,-21
24992,-100781,12500,781,2032,-76,40,-21
24994,-100781,12500,781,2047,-76,41,-21
24995,-100781,12500,781,2031,-76,41,-21
24997,-100781,12500,781,2041,-76,41,-21
24998,-100781,12500,781,2038,-76,41,-21
25000,-100781,12500,781,2046,-76,41,-22
25001,-100781,10937,781,2040,-76,41,-22
25003,-100781,10937,781,2035,-76,41,-22
25004,-100781,10937,781,2041,-76,40,-22
25006,-100781,10937,781,2033,-76,40,-22
25007,-100781,10937,781,2037,-76,40,-22
25009,-100781,10937,781,2041,-76,40,-22
25010,-100000,11718,0,2043,-76,41,-22
25012,-100000,11718,0,2035,-76,41,-22
25013,-100000,11718,0,2040,-76,41,-22
25015,-100000,11718,0,2031,-76,41,-22
25016,-100000,11718,0,2045,-75,41,-22
25018,-100000,11718,0,2047,-75,41,-22
25019,-100000,11718,0,2041,-75,41,-22
25021,-100000,11718,0,2047,-75,40,-22
25022,-100000,11718,0,2040,-75,40,-22
25024,-100000,11718,0,2041,-75,41,-22
25025,-100000,11718,0,2040,-75,41,-22
25027,-100000,11718,0,2045,-75,41,-22
25028,-100000,11718,0,2042,-75,41,-22
25030,-100000,11718,0,2035,-75,41,-22
25031,-100000,13281,781,2031,-75,41,-22
25033,-100000,13281,781,2040,-74,40,-22
25034,-100000,13281,781,2045,-74,40,-22
25036,-100000,13281,781,2038,-74,41,-22
25037,-100000,13281,781,2042,-74,41,-22
25039,-100000,13281,781,2041,-74,41,-22
25040,-100000,13281,781,2035,-74,41,-22
25042,-98437,12500,781,2041,-74,41,-22
25044,-98437,12500,781,2042,-74,41,-22
25046,-98437,12500,781,2053,-73,41,-22
25048,-98437,12500,781,2045,-73,41,-22
25049,-98437,12500,781,2040,-73,41,-22
25051,-99218,12500,0,2043,-73,41,-22
25052,-99218,12500,0,2045,-73,41,-22
25054,-99218,12500,0,2037,-73,41,-22
25055,-99218,12500,0,2043,-73,41,-22
25057,-99218,12500,0,2037,-72,41,-22
25058,-99218,12500,0,2045,-72,41,-22
25060,-99218,12500,0,2033,-72,41,-22
25061,-98437,12500,-781,2041,-72,41,-22
25063,-98437,12500,-781,2041,-72,41,-22
25064,-98437,12500,-781,2032,-72,41,-22
25066,-98437,12500,-781,2041,-72,41,-22
25067,-98437,12500,-781,2038,-72,41,-22
25069,-98437,12500,-781,2047,-72,41,-22
25070,-98437,12500,-781,2045,-72,41,-22
25072,-99218,10937,2343,2053,-72,41,-22
25073,-99218,10937,2343,2041,-72,41,-22
25075,-99218,10937,2343,2043,-71,41,-22
25076,-99218,10937,2343,2043,-71,41,-22
25078,-99218,10937,2343,2035,-71,41,-22
25079,-99218,10937,2343,2033,-71,41,-22
25081,-99218,10937,2343,2042,-71,41,-23
25082,-97656,11718,1562,2043,-71,41,-23
25084,-97656,11718,1562,2043,-71,41,-23
25085,-97656,11718,1562,2043,-71,41,-23
25087,-97656,11718,1562,2038,-70,41,-23
25088,-97656,11718,1562,2052,-70,41,-23
25090,-97656,11718,1562,2042,-70,41,-23
25091,-99218,11718,1562,2041,-70,41,-23
25093,-99218,11718,1562,2048,-70,41,-23
25094,-99218,11718,1562,2040,-70,41,-23
25096,-99218,11718,1562,2033,-70,41,-23
25097,-99218,11718,1562,2033,-70,41,-23
25099,-99218,11718,1562,2040,-69,41,-23
25143,-97656,11718,1562,2038,-64,41,-23
25145,-97656,11718,1562,2041,-64,41,-23
25146,-97656,11718,1562,2042,-64,41,-23
25148,-97656,11718,1562,2037,-63,41,-23
25149,-97656,11718,1562,2032,-63,41,-23
25151,-97656,11718,1562,2033,-63,41,-23
25152,-99218,12500,781,2046,-63,41,-23
25154,-99218,12500,781,2043,-62,41,-23
25155,-99218,12500,781,2041,-62,41,-23
25157,-99218,12500,781,2042,-62,41,-23
25158,-99218,12500,781,2040,-62,41,-23
25160,-99218,12500,781,2036,-62,41,-23
25161,-99218,12500,781,2043,-61,41,-23
25163,-98437,13281,781,2035,-61,41,-23
25164,-98437,13281,781,2030,-61,41,-23
25166,-98437,13281,781,2036,-61,41,-23
25167,-98437,13281,781,2042,-61,41,-23
25169,-98437,13281,781,2042,-61,41,-23
25170,-98437,13281,781,2041,-60,41,-23
25172,-98437,13281,781,2043,-60,41,-23
25173,-97656,12500,781,2042,-60,41,-23
25175,-97656,12500,781,2047,-60,41,-23
25176,-97656,12500,781,2046,-60,41,-23
25178,-97656,12500,781,2045,-60,41,-23
25179,-97656,12500,781,2033,-60,41,-23
25181,-97656,12500,781,2041,-59,41,-23
25182,-96093,12500,0,2043,-59,41,-23
25184,-96093,12500,0,2036,-59,41,-23
25185,-96093,12500,0,2042,-59,41,-23
25187,-96093,12500,0,2036,-59,41,-23
25188,-96093,12500,0,2042,-58,41,-23
25190,-96093,12500,0,2033,-58,41,-23
25191,-96093,12500,0,2048,-58,41,-23
25193,-96093,11718,1562,2043,-58,41,-23
25194,-96093,11718,1562,2042,-58,40,-23
25196,-96093,11718,1562,2036,-58,40,-23
25197,-96093,11718,1562,2047,-58,40,-23
25199,-96093,11718,1562,2041,-57,40,-23
25202,-96093,11718,1562,2041,-57,40,-23
25203,-96093,12500,1562,2035,-57,40,-23
25205,-96093,12500,1562,2038,-56,40,-23
25206,-96093,12500,1562,2043,-56,39,-23
25208,-96093,12500,1562,2041,-56,39,-24
25209,-96093,12500,1562,2042,-56,39,-24
25211,-96093,12500,1562,2033,-56,40,-24
25212,-96093,12500,1562,2043,-55,39,-24
25214,-95312,11718,2343,2046,-55,39,-24
25215,-95312,11718,2343,2040,-55,39,-24
25217,-95312,11718,2343,2042,-55,39,-24
25218,-95312,11718,2343,2042,-54,39,-23
25220,-95312,11718,2343,2041,-54,39,-23
25221,-95312,11718,2343,2031,-54,39,-23
25223,-96093,12500,3125,2041,-54,39,-23
25224,-96093,12500,3125,2041,-53,39,-23
25226,-96093,12500,3125,2041,-53,39,-23
25227,-96093,12500,3125,2042,-53,39,-23
25229,-96093,12500,3125,2043,-53,39,-23
25230,-96093,12500,3125,2043,-53,39,-23
25232,-96093,12500,3125,2040,-53,39,-23
25233,-96093,12500,2343,2038,-53,39,-23
25235,-96093,12500,2343,2040,-52,39,-23
25236,-96093,12500,2343,2035,-52,39,-23
25238,-96093,12500,2343,2038,-52,39,-23
25239,-96093,12500,2343,2030,-52,39,-23
25241,-96093,12500,2343,2041,-51,39,-23
25242,-96093,12500,2343,2043,-51,39,-23
25244,-96093,11718,0,2037,-51,39,-23
25245,-96093,11718,0,2038,-51,39,-23
25247,-96093,11718,0,2041,-50,38,-23
25248,-96093,11718,0,2040,-50,38,-23
25250,-96093,11718,0,2048,-50,38,-23
25251,-96093,11718,0,2041,-50,39,-23
25253,-96093,11718,0,2040,-50,39,-23
25254,-95312,12500,1562,2041,-49,39,-23
25256,-95312,12500,1562,2045,-49,39,-23
25273,-95312,12500,781,2031,-47,38,-23
25274,-96093,13281,0,2041,-47,38,-23
25276,-96093,13281,0,2048,-47,38,-23
25277,-96093,13281,0,2035,-47,38,-23
25279,-96093,13281,0,2041,-46,38,-23
25280,-96093,13281,0,2036,-46,38,-23
25282,-96093,13281,0,2035,-46,38,-23
25283,-95312,13281,781,2045,-46,38,-23
25285,-95312,13281,781,2049,-46,37,-23
25286,-95312,13281,781,2041,-46,37,-23
25288,-95312,13281,781,2046,-45,37,-23
25289,-95312,13281,781,2041,-45,37,-23
25291,-95312,13281,781,2041,-45,37,-23
25292,-95312,13281,781,2043,-45,37,-23
25294,-95312,14062,1562,2049,-45,37,-22
25295,-95312,14062,1562,2040,-44,37,-22
25297,-95312,14062,1562,2038,-44,37,-23
25298,-95312,14062,1562,2041,-44,37,-23
25300,-95312,14062,1562,2041,-44,37,-23
25301,-95312,14062,1562,2038,-44,37,-22
25303,-95312,14062,1562,2048,-43,37,-22
25304,-93750,13281,3125,2031,-43,37,-22
25306,-93750,13281,3125,2036,-43,37,-23
25307,-93750,13281,3125,2051,-43,36,-23
25309,-93750,13281,3125,2041,-42,36,-23
25310,-93750,13281,3125,2045,-42,36,-23
25312,-93750,13281,3125,2035,-42,36,-22
25313,-93750,13281,3125,2041,-42,36,-22
25315,-94531,14062,781,2043,-42,36,-22
25316,-94531,14062,781,2042,-42,36,-22
25318,-94531,14062,781,2043,-42,36,-22
25319,-94531,14062,781,2042,-42,36,-22
25321,-94531,14062,781,2037,-42,36,-22
25322,-94531,14062,781,2038,-41,36,-22
25324,-95312,14062,781,2042,-41,36,-22
25325,-95312,14062,781,2025,-41,36,-22
25327,-95312,14062,781,2047,-41,36,-22
25330,-95312,14062,781,2052,-40,36,-22
25331,-95312,14062,781,2051,-40,36,-22
25333,-95312,14062,781,2051,-40,36,-22
25334,-95312,14062,1562,2043,-39,36,-22
25336,-95312,14062,1562,2057,-39,36,-22
25337,-95312,14062,1562,2043,-39,36,-22
25339,-95312,14062,1562,2042,-39,36,-22
25340,-95312,14062,1562,2045,-39,36,-22
25342,-95312,14062,1562,2047,-39,36,-22
25343,-95312,14062,1562,2048,-38,35,-22
25345,-95312,15625,2343,2046,-38,35,-22
25346,-95312,15625,2343,2045,-38,35,-22
25348,-95312,15625,2343,2043,-38,35,-22
25349,-95312,15625,2343,2045,-37,35,-22
25351,-95312,15625,2343,2051,-37,35,-22
25352,-95312,15625,2343,2043,-37,35,-21
25354,-95312,15625,2343,2051,-37,35,-21
25355,-94531,14843,1562,2043,-37,35,-21
25357,-94531,14843,1562,2041,-37,35,-21
25358,-94531,14843,1562,2037,-36,35,-21
25360,-94531,14843,1562,2042,-36,35,-21
25361,-94531,14843,1562,2038,-36,35,-21
25363,-94531,14843,1562,2040,-36,34,-21
25364,-94531,13281,781,2041,-36,34,-21
25366,-94531,13281,781,2037,-35,34,-22
25367,-94531,13281,781,2040,-35,34,-22
25369,-94531,13281,781,2036,-35,34,-22
25370,-94531,13281,781,2052,-35,34,-22
25372,-94531,13281,781,2038,-35,34,-22
25373,-94531,13281,781,2046,-35,34,-22
25375,-94531,14062,781,2038,-34,34,-22
25376,-94531,14062,781,2041,-34,34,-21
25378,-94531,14062,781,2046,-34,33,-21
25379,-94531,14062,781,2036,-34,33,-21
25381,-94531,14062,781,2040,-34,33,-21
25382,-94531,14062,781,2042,-34,33,-21
25384,-94531,14062,781,2042,-33,33,-21
25414,-93750,14062,0,2036,-30,31,-21
25416,-94531,14062,0,2042,-30,31,-21
25417,-94531,14062,0,2036,-29,31,-21
25419,-94531,14062,0,2032,-29,31,-21
25420,-94531,14062,0,2036,-29,31,-21
25422,-94531,14062,0,2037,-29,31,-21
25423,-94531,14062,0,2036,-29,31,-21
25425,-95312,15625,781,2048,-29,31,-21
25426,-95312,15625,781,2036,-28,30,-21
25428,-95312,15625,781,2036,-28,30,-21
25429,-95312,15625,781,2038,-28,30,-21
25431,-95312,15625,781,2042,-28,30,-21
25432,-95312,15625,781,2041,-28,30,-21
25434,-95312,15625,781,2035,-28,30,-21
25435,-95312,14843,-781,2041,-28,30,-21
25437,-95312,14843,-781,2033,-28,30,-21
25438,-95312,14843,-781,2041,-28,30,-21
25440,-95312,14843,-781,2043,-28,30,-21
25441,-95312,14843,-781,2037,-27,30,-21
25443,-95312,14843,-781,2048,-27,29,-21
25444,-95312,14843,-781,2041,-27,29,-21
25446,-95312,14843,0,2052,-27,29,-21
25447,-95312,14843,0,2036,-27,29,-21
25449,-95312,14843,0,2041,-26,29,-21
25450,-95312,14843,0,2035,-26,29,-21
25452,-95312,14843,0,2036,-26,29,-21
25453,-95312,14843,0,2045,-26,28,-21
25455,-95312,14843,0,2042,-26,28,-20
25456,-94531,14062,1562,2038,-26,28,-20
25458,-94531,14062,1562,2051,-26,28,-20
25459,-94531,14062,1562,2036,-26,28,-20
25461,-94531,14062,1562,2041,-25,28,-20
25462,-94531,14062,1562,2042,-25,28,-20
25464,-94531,14062,1562,2038,-25,28,-20
25465,-95312,13281,-781,2041,-25,28,-20
25467,-95312,13281,-781,2042,-25,28,-20
25468,-95312,13281,-781,2053,-25,28,-20
25470,-95312,13281,-781,2038,-25,27,-20
25473,-95312,13281,-781,2045,-25,27,-20
25475,-95312,13281,-781,2042,-25,27,-20
25476,-95312,14062,-781,2042,-24,27,-20
25478,-95312,14062,-781,2035,-24,27,-20
25479,-95312,14062,-781,2051,-24,27,-20
25481,-95312,14062,-781,2051,-24,27,-20
25482,-95312,14062,-781,2038,-24,27,-19
25484,-95312,14062,-781,2052,-24,27,-19
25485,-95312,14062,-781,2036,-24,26,-19
25487,-94531,14062,-781,2046,-24,26,-19
25488,-94531,14062,-781,2045,-23,26,-19
25489,-94531,14062,-781,2047,-23,26,-19
25491,-94531,14062,-781,2040,-23,26,-19
25493,-94531,14062,-781,2051,-23,26,-19
25494,-94531,14062,-781,2049,-23,26,-19
25496,-95312,14062,0,2041,-23,25,-19
25497,-95312,14062,0,2043,-23,25,-19
25499,-95312,14062,0,2042,-23,25,-19
25500,-95312,14062,0,2043,-22,25,-19
25502,-95312,14062,0,2036,-22,25,-19
25503,-95312,14062,0,2043,-22,25,-19
25505,-95312,14062,0,2041,-22,25,-19
25506,-95312,14843,-2343,2037,-22,25,-19
25507,-95312,14843,-2343,2036,-22,25,-19
25509,-95312,14843,-2343,2043,-22,25,-20
25510,-95312,14843,-2343,2035,-22,25,-20
25512,-95312,14843,-2343,2042,-22,25,-20
25513,-95312,14843,-2343,2037,-22,25,-20
25515,-95312,14843,-2343,2041,-22,25,-20
25517,-94531,14843,-1562,2038,-22,25,-20
25518,-94531,14843,-1562,2049,-21,24,-20
25520,-94531,14843,-1562,2041,-21,24,-20
25521,-94531,14843,-1562,2048,-21,24,-20
25523,-94531,14843,-1562,2041,-21,24,-19
25524,-94531,14843,-1562,2047,-21,24,-19
25526,-94531,14843,-1562,2049,-21,24,-19
25527,-94531,14062,-1562,2049,-21,24,-19
25545,-95312,14062,-1562,2051,-21,23,-19
25547,-95312,14843,-1562,2046,-21,23,-19
25549,-95312,14843,-1562,2036,-21,22,-19
25550,-95312,14843,-1562,2041,-21,22,-19
25552,-95312,14843,-1562,2047,-21,22,-19
25553,-95312,14843,-1562,2040,-21,22,-19
25555,-95312,14843,-1562,2045,-21,22,-19
25556,-96093,14843,-781,2042,-21,22,-19
25558,-96093,14843,-781,2049,-21,22,-19
25559,-96093,14843,-781,2049,-21,22,-19
25561,-96093,14843,-781,2036,-21,22,-19
25562,-96093,14843,-781,2038,-21,22,-19
25564,-96093,14843,-781,2042,-21,22,-19
25565,-96093,14843,-781,2043,-21,22,-19
25567,-96093,16406,-2343,2046,-21,22,-19
25568,-96093,16406,-2343,2042,-21,21,-19
25570,-96093,16406,-2343,2041,-21,21,-19
25571,-96093,16406,-2343,2036,-21,21,-19
25573,-96093,16406,-2343,2051,-21,21,-19
25574,-96093,16406,-2343,2033,-20,21,-20
25576,-96093,16406,-2343,2038,-20,21,-20
25577,-96093,14843,-3125,2040,-20,21,-20
25579,-96093,14843,-3125,2036,-20,21,-20
25580,-96093,14843,-3125,2041,-20,20,-20
25582,-96093,14843,-3125,2037,-20,20,-20
25583,-96093,14843,-3125,2037,-20,20,-20
25585,-96093,14843,-3125,2041,-20,20,-20
25586,-96093,14843,-3125,2045,-20,20,-20
25588,-96875,16406,-2343,2043,-20,20,-20
25589,-96875,16406,-2343,2038,-20,20,-20
25591,-96875,16406,-2343,2045,-20,19,-20
25592,-96875,16406,-2343,2041,-21,19,-20
25594,-96875,16406,-2343,2030,-21,19,-20
25595,-96875,16406,-2343,2047,-21,19,-20
25597,-96093,15625,-3125,2038,-21,19,-20
25598,-96093,15625,-3125,2031,-21,19,-20
25600,-96093,15625,-3125,2041,-21,19,-19
25602,-96093,15625,-3125,2041,-21,19,-19
25603,-96093,15625,-3125,2051,-21,19,-19
25605,-96093,15625,-3125,2047,-21,19,-19
25606,-96093,15625,-3125,2051,-21,19,-19
25608,-96875,17187,-1562,2051,-21,19,-19
25609,-96875,17187,-1562,2049,-21,19,-19
25611,-96875,17187,-1562,2042,-21,19,-19
25612,-96875,17187,-1562,2041,-21,18,-19
25614,-96875,17187,-1562,2041,-21,18,-19
25615,-96875,17187,-1562,2046,-21,18,-19
25617,-96875,17187,-1562,2043,-21,18,-19
25618,-96875,15625,-2343,2048,-21,18,-19
25620,-96875,15625,-2343,2041,-21,18,-19
25621,-96875,15625,-2343,2046,-21,18,-19
25623,-96875,15625,-2343,2041,-21,18,-19
25624,-96875,15625,-2343,2036,-21,18,-19
25626,-96875,15625,-2343,2047,-21,18,-19
25627,-96875,15625,-3906,2032,-21,18,-19
25629,-96875,15625,-3906,2040,-21,18,-19
25630,-96875,15625,-3906,2040,-21,18,-19
25632,-96875,15625,-3906,2046,-21,18,-19
25633,-96875,15625,-3906,2047,-21,18,-19
25635,-96875,15625,-3906,2043,-21,17,-19
25636,-96875,15625,-3906,2037,-21,17,-19
25638,-96875,15625,-3125,2038,-21,17,-19
25639,-96875,15625,-3125,2047,-21,17,-19
25641,-96875,15625,-3125,2042,-21,17,-19
25642,-96875,15625,-3125,2037,-21,17,-19
25644,-96875,15625,-3125,2045,-21,17,-19
25645,-96875,15625,-3125,2042,-21,17,-19
25647,-96875,15625,-3125,2043,-21,17,-19
25648,-97656,14843,-3125,2047,-21,17,-19
25650,-97656,14843,-3125,2040,-21,17,-19
25651,-97656,14843,-3125,2047,-21,17,-19
25654,-97656,14843,-3125,2035,-22,17,-18
25671,-97656,14843,-3906,2042,-22,16,-18
25672,-97656,14843,-3906,2040,-23,16,-18
25674,-97656,14843,-3906,2041,-23,16,-18
25675,-97656,14843,-3906,2041,-23,15,-18
25677,-97656,14843,-3906,2046,-23,15,-18
25678,-99218,16406,-3906,2048,-23,15,-18
25680,-99218,16406,-3906,2043,-23,15,-18
25681,-99218,16406,-3906,2052,-23,15,-18
25683,-99218,16406,-3906,2043,-23,15,-18
25684,-99218,16406,-3906,2046,-23,15,-18
25686,-99218,16406,-3906,2051,-23,15,-18
25687,-99218,16406,-3906,2036,-24,15,-19
25689,-99218,16406,-4687,2048,-24,15,-19
25690,-99218,16406,-4687,2043,-24,14,-19
25692,-99218,16406,-4687,2042,-24,14,-19
25693,-99218,16406,-4687,2040,-24,14,-19
25695,-99218,16406,-4687,2045,-24,14,-19
25696,-99218,16406,-4687,2036,-24,14,-18
25698,-99218,16406,-4687,2035,-24,14,-18
25699,-98437,16406,-4687,2045,-24,14,-18
25701,-98437,16406,-4687,2041,-24,14,-18
25702,-98437,16406,-4687,2035,-24,14,-18
25704,-98437,16406,-4687,2053,-24,14,-18
25705,-98437,16406,-4687,2047,-24,14,-18
25707,-98437,16406,-4687,2046,-25,14,-18
25708,-98437,15625,-5468,2033,-25,14,-18
25710,-98437,15625,-5468,2031,-25,14,-18
25711,-98437,15625,-5468,2045,-25,14,-18
25713,-98437,15625,-5468,2031,-25,14,-18
25714,-98437,15625,-5468,2049,-25,14,-18
25716,-98437,15625,-5468,2049,-26,14,-18
25717,-98437,15625,-5468,2041,-26,14,-18
25719,-98437,16406,-3125,2043,-26,14,-18
25720,-98437,16406,-3125,2040,-26,14,-18
25722,-98437,16406,-3125,2041,-26,14,-18
25724,-98437,16406,-3125,2036,-26,13,-18
25725,-98437,16406,-3125,2049,-26,13,-18
25727,-98437,16406,-3125,2051,-26,13,-18
25728,-99218,15625,-3906,2047,-26,13,-18
25730,-99218,15625,-3906,2048,-26,13,-18
25731,-99218,15625,-3906,2045,-26,13,-18
25733,-99218,15625,-3906,2041,-27,13,-18
25734,-99218,15625,-3906,2051,-27,13,-18
25736,-99218,15625,-3906,2046,-27,13,-18
25737,-99218,15625,-3906,2040,-27,13,-18
25739,-98437,16406,-5468,2052,-27,13,-18
25740,-98437,16406,-5468,2031,-27,13,-18
25742,-98437,16406,-5468,2031,-28,13,-18
25743,-98437,16406,-5468,2049,-28,13,-18
25745,-98437,16406,-5468,2049,-28,13,-18
25746,-98437,16406,-5468,2043,-28,13,-18
25748,-98437,16406,-5468,2032,-28,13,-18
25749,-99218,15625,-4687,2041,-28,13,-18
25751,-99218,15625,-4687,2043,-28,12,-18
25752,-99218,15625,-4687,2038,-28,12,-18
25754,-99218,15625,-4687,2051,-28,12,-18
25755,-99218,15625,-4687,2043,-28,12,-18
25757,-99218,15625,-4687,2038,-28,12,-18
25758,-99218,15625,-4687,2043,-29,12,-18
25760,-100000,15625,-5468,2038,-29,12,-18
25761,-100000,15625,-5468,2036,-29,12,-18
25763,-100000,15625,-5468,2035,-29,12,-18
25764,-100000,15625,-5468,2038,-29,11,-18
25766,-100000,15625,-5468,2043,-29,11,-18
25767,-100000,15625,-5468,2040,-29,11,-18
25769,-100000,15625,-5468,2042,-30,11,-18
25770,-100000,15625,-5468,2037,-30,11,-18
25772,-100000,15625,-5468,2036,-30,11,-18
25773,-100000,15625,-5468,2040,-30,11,-18
25775,-100000,15625,-5468,2041,-30,11,-18
25778,-100000,15625,-5468,2045,-31,11,-18
25962,-101562,14843,-4687,2041,-56,12,-18
25964,-101562,14843,-4687,2031,-56,12,-18
25965,-101562,14843,-4687,2032,-56,12,-18
25967,-101562,14843,-4687,2031,-56,12,-18
25968,-101562,14843,-4687,2048,-56,12,-18
25970,-101562,14843,-4687,2053,-56,12,-18
25971,-101562,14062,-4687,2047,-57,13,-18
25973,-101562,14062,-4687,2031,-57,13,-18
25974,-101562,14062,-4687,2037,-57,13,-18
25976,-101562,14062,-4687,2041,-57,13,-18
25977,-101562,14062,-4687,2047,-57,13,-18
25979,-101562,14062,-4687,2051,-58,13,-18
25980,-101562,14062,-4687,2036,-58,13,-18
25982,-102343,14062,-3906,2049,-58,14,-18
25983,-102343,14062,-3906,2032,-58,14,-18
25985,-102343,14062,-3906,2035,-59,14,-18
25986,-102343,14062,-3906,2047,-59,14,-18
25988,-102343,14062,-3906,2036,-59,14,-18
25989,-102343,14062,-3906,2035,-59,14,-18
25991,-102343,14062,-3906,2038,-59,14,-18
25992,-101562,14062,-3906,2041,-59,14,-18
25994,-101562,14062,-3906,2048,-60,14,-18
25995,-101562,14062,-3906,2032,-60,14,-18
25997,-101562,14062,-3906,2041,-60,14,-18
25998,-101562,14062,-3906,2036,-60,14,-18
26000,-101562,14062,-3906,2031,-61,14,-18
26001,-102343,14062,-3906,2033,-61,14,-18
26003,-102343,14062,-3906,2049,-61,15,-18
26004,-102343,14062,-3906,2033,-61,15,-18
26006,-102343,14062,-3906,2042,-61,15,-18
26007,-102343,14062,-3906,2041,-62,15,-18
26009,-102343,14062,-3906,2036,-62,15,-18
26010,-102343,14062,-3906,2036,-62,15,-18
26012,-102343,13281,-3125,2045,-62,15,-18
26013,-102343,13281,-3125,2042,-63,15,-18
26095,-101562,14062,-3906,2043,-72,18,-19
26097,-101562,14062,-3906,2038,-72,18,-19
26099,-101562,14062,-3906,2043,-73,18,-19
26100,-101562,14062,-3906,2042,-73,18,-19
26102,-101562,14062,-3906,2049,-73,18,-19
26103,-101562,14062,-4687,2038,-73,18,-19
26105,-101562,14062,-4687,2040,-73,18,-19
26106,-101562,14062,-4687,2040,-73,18,-19
26108,-101562,14062,-4687,2036,-73,18,-19
26109,-101562,14062,-4687,2045,-74,18,-19
26111,-101562,14062,-4687,2033,-74,19,-19
26112,-101562,14062,-4687,2040,-74,19,-19
26114,-101562,13281,-3906,2046,-74,19,-19
26115,-101562,13281,-3906,2035,-74,19,-19
26117,-101562,13281,-3906,2041,-74,19,-19
26118,-101562,13281,-3906,2040,-75,19,-19
26120,-101562,13281,-3906,2032,-75,19,-19
26121,-101562,13281,-3906,2046,-75,19,-19
26123,-100781,12500,-2343,2031,-75,19,-19
26124,-100781,12500,-2343,2038,-75,19,-19
26126,-100781,12500,-2343,2037,-75,19,-19
26127,-100781,12500,-2343,2036,-75,20,-19
26129,-100781,12500,-2343,2036,-75,20,-19
26130,-100781,12500,-2343,2049,-75,20,-19
26132,-100781,12500,-2343,2041,-75,20,-19
26133,-101562,13281,-1562,2037,-75,20,-19
26135,-101562,13281,-1562,2052,-76,20,-19
26136,-101562,13281,-1562,2041,-76,20,-19
26138,-101562,13281,-1562,2031,-76,20,-19
26139,-101562,13281,-1562,2042,-76,20,-19
26141,-101562,13281,-1562,2038,-76,21,-19
26142,-101562,13281,-1562,2032,-76,21,-19
26144,-101562,13281,-2343,2048,-76,21,-19
26145,-101562,13281,-2343,2038,-77,21,-19
26147,-101562,13281,-2343,2041,-77,21,-19
26149,-101562,13281,-2343,2042,-77,21,-19
26150,-101562,13281,-2343,2041,-77,21,-19
26152,-101562,13281,-2343,2043,-77,21,-19
26153,-100781,14062,-2343,2041,-77,21,-19
26155,-100781,14062,-2343,2043,-77,21,-19
26156,-100781,14062,-2343,2037,-77,21,-19
26158,-100781,14062,-2343,2041,-77,21,-19
26159,-100781,14062,-2343,2046,-77,21,-19
26161,-100781,14062,-2343,2043,-78,21,-19
26162,-100781,14062,-2343,2045,-78,21,-19
26164,-101562,14062,-2343,2036,-78,22,-19
26165,-101562,14062,-2343,2047,-78,22,-19
26167,-101562,14062,-2343,2049,-78,22,-19
26168,-101562,14062,-2343,2041,-78,22,-19
26170,-101562,14062,-2343,2033,-78,22,-19
26171,-101562,14062,-2343,2037,-78,22,-19
26173,-101562,14062,-2343,2043,-78,22,-19
26174,-101562,13281,-1562,2047,-78,22,-19
26176,-101562,13281,-1562,2042,-78,22,-19
26177,-101562,13281,-1562,2041,-78,22,-19
26179,-101562,13281,-1562,2042,-79,22,-19
26180,-101562,13281,-1562,2037,-79,22,-19
26182,-101562,13281,-1562,2040,-79,22,-19
26183,-101562,14062,-781,2043,-79,22,-19
26185,-101562,14062,-781,2045,-79,22,-19
26186,-101562,14062,-781,2037,-79,22,-19
26188,-101562,14062,-781,2046,-79,23,-19
26189,-101562,14062,-781,2046,-79,23,-19
26191,-101562,14062,-781,2035,-79,23,-19
26192,-101562,14062,-781,2042,-79,23,-19
26194,-101562,14843,-1562,2031,-79,23,-19
26195,-101562,14843,-1562,2048,-79,23,-19
26197,-101562,14843,-1562,2045,-79,23,-19
26198,-101562,14843,-1562,2041,-79,23,-19
26201,-101562,14843,-1562,2038,-80,23,-19
26231,-100781,13281,-781,2037,-80,24,-18
26232,-100781,13281,-781,2031,-80,25,-19
26234,-100781,13281,-781,2031,-80,25,-19
26235,-100781,12500,0,2042,-80,25,-19
26237,-100781,12500,0,2046,-80,25,-18
26238,-100781,12500,0,2047,-80,25,-19
26240,-100781,12500,0,2045,-80,25,-19
26241,-100781,12500,0,2047,-80,25,-19
26243,-100781,12500,0,2042,-80,25,-19
26244,-100781,13281,-781,2042,-80,25,-19
26246,-100781,13281,-781,2043,-80,26,-19
26247,-100781,13281,-781,2035,-80,26,-19
26249,-100781,13281,-781,2041,-80,26,-19
26250,-100781,13281,-781,2038,-80,26,-19
26252,-100781,13281,-781,2043,-80,26,-19
26253,-100781,13281,-781,2037,-80,26,-19
26255,-100000,13281,-1562,2043,-80,26,-19
26256,-100000,13281,-1562,2041,-80,26,-19
26258,-100000,13281,-1562,2042,-80,26,-19
26259,-100000,13281,-1562,2042,-80,26,-19
26261,-100000,13281,-1562,2042,-80,27,-19
26262,-100000,13281,-1562,2042,-80,27,-19
26264,-100000,13281,-1562,2036,-80,27,-19
26265,-100781,12500,-781,2045,-80,27,-19
26267,-100781,12500,-781,2048,-80,27,-19
26268,-100781,12500,-781,2041,-80,27,-19
26270,-100781,12500,-781,2041,-80,27,-19
26271,-100781,12500,-781,2046,-80,27,-19
26273,-100781,12500,-781,2046,-80,27,-19
26274,-100781,12500,-781,2041,-80,27,-19
26276,-100000,13281,-781,2042,-80,27,-19
26277,-100000,13281,-781,2038,-80,27,-19
26279,-100000,13281,-781,2038,-80,27,-19
26280,-100000,13281,-781,2037,-80,27,-19
26282,-100000,13281,-781,2052,-80,27,-19
26283,-100000,13281,-781,2043,-80,27,-19
26285,-100000,12500,-781,2038,-80,27,-19
26287,-100000,12500,-781,2038,-80,27,-19
26288,-100000,12500,-781,2043,-80,27,-19
26290,-100000,12500,-781,2051,-80,27,-19
26291,-100000,12500,-781,2048,-80,27,-19
26293,-100000,12500,-781,2041,-80,28,-19
26294,-100000,12500,-781,2037,-80,28,-19
26296,-100781,14062,-781,2047,-80,28,-19
26297,-100781,14062,-781,2045,-80,28,-19
26299,-100781,14062,-781,2040,-80,28,-19
26300,-100781,14062,-781,2033,-80,28,-19
26302,-100781,14062,-781,2038,-80,28,-19
26303,-100781,14062,-781,2035,-80,28,-19
26305,-100781,13281,0,2053,-80,28,-19
26306,-100781,13281,0,2043,-79,28,-19
26308,-100781,13281,0,2036,-79,28,-19
26309,-100781,13281,0,2043,-80,28,-19
26311,-100781,13281,0,2040,-80,28,-19
26312,-100781,13281,0,2041,-80,28,-19
26314,-100781,13281,0,2038,-80,28,-19
26315,-100000,13281,0,2043,-79,28,-19
26317,-100000,13281,0,2041,-79,28,-19
26318,-100000,13281,0,2032,-79,28,-19
26320,-100000,13281,0,2041,-80,28,-19
26321,-100000,13281,0,2042,-80,28,-19
26323,-100000,13281,0,2033,-80,28,-19
26324,-100000,13281,0,2042,-80,28,-19
26326,-100000,13281,0,2043,-80,29,-19
26327,-100000,13281,0,2042,-80,29,-19
26329,-100000,13281,0,2031,-80,29,-19
26330,-100000,13281,0,2033,-80,29,-19
26332,-100000,13281,0,2041,-80,29,-19
26333,-100000,13281,0,2043,-79,29,-19
26335,-100000,13281,0,2049,-79,29,-19
26336,-100781,12500,781,2040,-79,29,-19
26338,-100781,12500,781,2046,-79,29,-19
26341,-100781,12500,781,2037,-79,29,-19
26379,-100000,13281,0,2047,-77,31,-19
26380,-100000,13281,0,2031,-77,31,-19
26382,-100000,13281,0,2033,-77,31,-19
26383,-100000,13281,0,2030,-77,31,-19
26385,-100000,13281,0,2040,-77,31,-19
26386,-100000,13281,0,2052,-77,31,-19
26388,-100000,13281,0,2041,-76,31,-19
26389,-100000,13281,0,2038,-76,31,-19
26391,-100000,13281,0,2037,-76,31,-19
26392,-100000,13281,0,2040,-76,32,-19
26394,-100000,13281,0,2041,-76,32,-19
26395,-100000,13281,0,2035,-76,32,-19
26397,-100000,13281,0,2049,-76,32,-19
26398,-100000,13281,0,2040,-76,32,-19
26400,-100000,13281,0,2036,-76,32,-19
26401,-100000,13281,0,2041,-76,32,-19
26403,-100000,13281,0,2043,-76,32,-19
26404,-100000,13281,0,2035,-76,32,-19
26406,-100000,13281,0,2045,-76,32,-18
26407,-100000,12500,781,2042,-76,32,-18
26409,-100000,12500,781,2040,-75,32,-18
26410,-100000,12500,781,2043,-75,33,-18
26412,-100000,12500,781,2043,-75,33,-18
26413,-100000,12500,781,2052,-75,33,-18
26415,-100000,12500,781,2041,-75,33,-18
26416,-99218,13281,0,2043,-75,33,-18
26418,-99218,13281,0,2031,-75,33,-18
26419,-99218,13281,0,2040,-75,33,-18
26421,-99218,13281,0,2043,-74,33,-18
26422,-99218,13281,0,2040,-74,33,-18
26424,-99218,13281,0,2043,-74,33,-18
26425,-99218,13281,0,2048,-74,33,-18
26427,-100000,13281,-781,2032,-74,33,-18
26428,-100000,13281,-781,2048,-74,33,-18
26430,-100000,13281,-781,2035,-74,33,-18
26431,-100000,13281,-781,2041,-74,33,-18
26433,-100000,13281,-781,2041,-74,33,-18
26434,-100000,13281,-781,2047,-74,33,-18
26437,-100000,13281,0,2046,-74,33,-18
26439,-100000,13281,0,2041,-73,33,-18
26440,-100000,13281,0,2048,-73,33,-18
26442,-100000,13281,0,2045,-73,33,-18
26443,-100000,13281,0,2041,-73,33,-18
26445,-100000,13281,0,2038,-73,33,-18
26446,-100000,13281,0,2036,-73,33,-18
26448,-99218,13281,781,2046,-73,33,-18
26449,-99218,13281,781,2047,-73,33,-18
26451,-99218,13281,781,2041,-73,34,-18
26452,-99218,13281,781,2041,-73,33,-18
26454,-99218,13281,781,2042,-73,33,-18
26455,-99218,13281,781,2041,-72,33,-18
26457,-99218,13281,0,2041,-72,33,-18
26458,-99218,13281,0,2042,-72,34,-18
26460,-99218,13281,0,2036,-72,34,-18
26461,-99218,13281,0,2041,-72,34,-18
26463,-99218,13281,0,2051,-72,34,-18
26464,-99218,13281,0,2048,-71,34,-18
26466,-99218,13281,0,2048,-71,34,-18
26467,-99218,11718,2343,2041,-71,34,-18
26469,-99218,11718,2343,2041,-71,34,-18
26470,-99218,11718,2343,2041,-71,34,-18
26472,-99218,11718,2343,2038,-71,34,-18
26473,-99218,11718,2343,2045,-71,34,-18
26475,-99218,11718,2343,2061,-71,34,-18
26476,-99218,11718,2343,2035,-71,34,-18
26478,-99218,12500,0,2038,-71,34,-18
26479,-99218,12500,0,2042,-71,34,-18
26481,-99218,12500,0,2038,-70,34,-18
26482,-99218,12500,0,2045,-70,34,-18
26484,-99218,12500,0,2036,-70,34,-19
26485,-99218,12500,0,2040,-70,34,-19
26487,-98437,12500,0,2041,-70,34,-18
26488,-98437,12500,0,2036,-70,34,-18
26490,-98437,12500,0,2043,-69,34,-18
26491,-98437,12500,0,2035,-69,34,-18
26493,-98437,12500,0,2033,-69,34,-19
26583,-98437,13281,0,2048,-63,35,-18
26585,-98437,13281,0,2033,-63,36,-18
26586,-98437,13281,0,2033,-63,35,-18
26588,-98437,13281,0,2042,-63,35,-18
26589,-98437,12500,0,2053,-63,35,-18
26591,-98437,12500,0,2032,-62,36,-18
26592,-98437,12500,0,2048,-62,36,-18
26594,-98437,12500,0,2040,-62,36,-18
26595,-98437,12500,0,2038,-62,36,-18
26597,-98437,12500,0,2045,-62,36,-18
26598,-99218,13281,781,2040,-62,36,-18
26600,-99218,13281,781,2038,-62,36,-18
26601,-99218,13281,781,2043,-62,36,-18
26603,-99218,13281,781,2043,-62,36,-18
26604,-99218,13281,781,2035,-61,36,-18
26606,-99218,13281,781,2036,-61,36,-18
26607,-99218,13281,781,2037,-61,36,-18
26609,-99218,13281,-781,2042,-61,36,-18
26610,-99218,13281,-781,2045,-61,36,-18
26612,-99218,13281,-781,2037,-61,36,-18
26613,-99218,13281,-781,2042,-61,36,-18
26615,-99218,13281,-781,2051,-61,36,-18
26616,-99218,13281,-781,2042,-60,36,-18
26618,-99218,13281,-781,2033,-60,36,-18
26619,-98437,12500,-781,2038,-60,36,-18
26621,-98437,12500,-781,2046,-60,37,-18
26622,-98437,12500,-781,2051,-60,37,-18
26624,-98437,12500,-781,2046,-60,37,-18
26625,-98437,12500,-781,2032,-60,37,-18
26627,-98437,12500,-781,2043,-60,37,-18
26628,-98437,12500,-781,2045,-59,37,-19
26630,-98437,13281,0,2031,-59,37,-19
26631,-98437,13281,0,2040,-59,37,-19
26633,-98437,13281,0,2038,-59,37,-19
26634,-98437,13281,0,2051,-59,37,-19
26636,-98437,13281,0,2045,-59,37,-19
26637,-98437,13281,0,2042,-59,36,-19
26639,-99218,14062,0,2032,-59,37,-19
26641,-99218,14062,0,2041,-59,37,-19
26642,-99218,14062,0,2041,-59,37,-19
26644,-99218,14062,0,2041,-59,37,-19
26645,-99218,14062,0,2040,-59,37,-18
26647,-99218,14062,0,2040,-59,37,-18
26648,-99218,14062,0,2036,-59,37,-19
26650,-98437,12500,0,2045,-59,37,-19
26651,-98437,12500,0,2037,-59,37,-19
26653,-98437,12500,0,2032,-59,37,-19
26654,-98437,12500,0,2043,-58,37,-19
26656,-98437,12500,0,2033,-58,37,-19
26657,-98437,12500,0,2041,-58,37,-19
26659,-99218,11718,781,2035,-58,37,-19
26660,-99218,11718,781,2037,-58,37,-19
26662,-99218,11718,781,2043,-58,37,-19
26663,-99218,11718,781,2043,-58,37,-19
26665,-99218,11718,781,2032,-58,37,-19
26666,-99218,11718,781,2042,-58,37,-19
26668,-99218,11718,781,2041,-58,37,-19
26669,-97656,10156,781,2038,-58,37,-19
26671,-97656,10156,781,2031,-58,37,-19
26672,-97656,10156,781,2035,-58,37,-19
26674,-97656,10156,781,2041,-58,37,-19
26675,-97656,10156,781,2040,-57,37,-19
26677,-97656,10156,781,2028,-57,37,-19
26678,-97656,10156,781,2043,-57,37,-19
26680,-98437,13281,-781,2042,-57,37,-19
26681,-98437,13281,-781,2035,-57,36,-19
26683,-98437,13281,-781,2043,-57,37,-19
26684,-98437,13281,-781,2046,-57,37,-19
26686,-98437,13281,-781,2040,-57,37,-19
26687,-98437,13281,-781,2041,-57,37,-19
26689,-98437,13281,-781,2045,-57,37,-19
26690,-99218,13281,0,2033,-57,37,-19
26692,-99218,13281,0,2041,-57,37,-19
26693,-99218,13281,0,2031,-56,37,-19
26695,-99218,13281,0,2032,-56,37,-19
26696,-99218,13281,0,2046,-56,37,-19
26699,-99218,13281,0,2038,-56,36,-19
26732,-98437,11718,-781,2036,-55,36,-19
26734,-98437,11718,-781,2041,-55,36,-19
26735,-98437,11718,-781,2042,-55,36,-19
26737,-98437,11718,-781,2040,-55,36,-19
26738,-98437,11718,-781,2042,-54,36,-19
26740,-98437,12500,-781,2041,-54,36,-19
26741,-98437,12500,-781,2045,-54,36,-20
26743,-98437,12500,-781,2031,-54,36,-20
26744,-98437,12500,-781,2033,-54,36,-20
26746,-98437,12500,-781,2032,-54,36,-20
26747,-98437,12500,-781,2046,-54,36,-20
26749,-98437,12500,-781,2045,-54,36,-20
26750,-98437,13281,0,2041,-54,36,-20
26752,-98437,13281,0,2042,-54,36,-20
26753,-98437,13281,0,2052,-54,36,-20
26755,-98437,13281,0,2035,-54,36,-20
26756,-98437,13281,0,2041,-54,36,-20
26758,-98437,13281,0,2031,-53,36,-20
26759,-98437,13281,0,2031,-53,36,-20
26761,-98437,14843,-1562,2040,-53,36,-20
26762,-98437,14843,-1562,2031,-53,36,-20
26764,-98437,14843,-1562,2048,-53,36,-20
26765,-98437,14843,-1562,2041,-53,36,-20
26767,-98437,14843,-1562,2049,-53,37,-20
26768,-98437,14843,-1562,2051,-53,37,-20
26770,-98437,14843,-1562,2035,-53,36,-20
26771,-98437,13281,-781,2041,-53,36,-20
26773,-98437,13281,-781,2037,-53,36,-20
26774,-98437,13281,-781,2038,-53,36,-20
26776,-98437,13281,-781,2036,-53,36,-21
26777,-98437,13281,-781,2037,-53,36,-21
26779,-98437,13281,-781,2049,-52,36,-21
26780,-97656,12500,-1562,2049,-53,36,-21
26782,-97656,12500,-1562,2033,-53,36,-21
26783,-97656,12500,-1562,2032,-53,36,-21
26785,-97656,12500,-1562,2043,-53,37,-21
26787,-97656,12500,-1562,2041,-53,36,-21
26788,-97656,12500,-1562,2041,-53,36,-20
26790,-97656,12500,-1562,2041,-53,36,-20
26791,-98437,12500,781,2041,-53,36,-20
26793,-98437,12500,781,2042,-53,36,-20
26794,-98437,12500,781,2035,-53,36,-21
26796,-98437,12500,781,2041,-53,36,-21
26797,-98437,12500,781,2037,-53,36,-21
26799,-98437,12500,781,2045,-53,36,-21
26800,-97656,13281,-1562,2043,-52,36,-21
26802,-97656,13281,-1562,2035,-52,36,-21
26803,-97656,13281,-1562,2038,-52,36,-21
26805,-97656,13281,-1562,2048,-52,37,-21
26806,-97656,13281,-1562,2049,-52,37,-20
26808,-97656,13281,-1562,2036,-52,37,-20
26809,-97656,13281,-1562,2049,-52,37,-20
26811,-98437,12500,-781,2031,-52,37,-20
26812,-98437,12500,-781,2048,-52,37,-20
26814,-98437,12500,-781,2043,-52,37,-20
26815,-98437,12500,-781,2035,-52,37,-20
26817,-98437,12500,-781,2038,-52,37,-20
26818,-98437,12500,-781,2038,-52,37,-20
26820,-98437,12500,-781,2043,-52,37,-20
26821,-98437,12500,0,2035,-52,37,-20
26823,-98437,12500,0,2043,-52,37,-20
26824,-98437,12500,0,2043,-52,37,-21
26826,-98437,12500,0,2048,-52,37,-21
26827,-98437,12500,0,2041,-51,36,-21
26829,-98437,12500,0,2046,-51,36,-21
26830,-98437,12500,0,2031,-51,36,-21
26832,-99218,12500,-781,2041,-51,36,-21
26833,-99218,12500,-781,2047,-51,36,-21
26835,-99218,12500,-781,2045,-51,36,-21
26836,-99218,12500,-781,2042,-51,36,-21
26838,-99218,12500,-781,2035,-51,36,-21
26839,-99218,12500,-781,2041,-51,36,-21
26841,-98437,12500,-1562,2032,-51,36,-21
26907,-98437,12500,-781,2042,-50,36,-22
26909,-98437,12500,-781,2036,-50,36,-22
26910,-98437,12500,-781,2035,-50,36,-22
26912,-98437,12500,-781,2033,-50,36,-22
26913,-98437,12500,-781,2033,-50,36,-22
26915,-98437,12500,-781,2037,-50,36,-22
26917,-98437,12500,-781,2031,-50,35,-22
26918,-98437,12500,-781,2045,-50,35,-22
26920,-98437,12500,-781,2037,-50,35,-23
26921,-98437,12500,-781,2040,-50,35,-23
26923,-99218,13281,-781,2040,-50,35,-23
26924,-99218,13281,-781,2047,-49,35,-23
26926,-99218,13281,-781,2036,-50,35,-23
26927,-99218,13281,-781,2041,-50,35,-23
26928,-99218,13281,-781,2031,-49,35,-23
26930,-99218,13281,-781,2035,-49,35,-23
26931,-99218,13281,-781,2040,-49,35,-24
26933,-99218,13281,-781,2043,-49,35,-24
26934,-99218,13281,-781,2030,-49,34,-24
26936,-99218,13281,-781,2032,-49,34,-24
26937,-99218,13281,-781,2051,-49,34,-24
26939,-99218,13281,-781,2046,-49,34,-24
26941,-99218,13281,-781,2037,-49,34,-24
26942,-98437,12500,-1562,2038,-49,34,-24
26944,-98437,12500,-1562,2047,-49,34,-24
26945,-98437,12500,-1562,2037,-49,34,-24
26947,-98437,12500,-1562,2038,-49,34,-24
26948,-98437,12500,-1562,2046,-49,34,-24
26950,-98437,12500,-1562,2035,-49,34,-24
26951,-98437,12500,-1562,2031,-49,34,-24
26952,-100000,12500,-2343,2051,-49,34,-24
26954,-100000,12500,-2343,2048,-49,34,-24
26955,-100000,12500,-2343,2031,-49,34,-24
26957,-100000,12500,-2343,2032,-49,34,-24
26958,-100000,12500,-2343,2033,-49,34,-24
26960,-100000,12500,-2343,2042,-49,34,-24
26963,-100000,11718,-2343,2038,-49,34,-24
26964,-100000,11718,-2343,2042,-49,34,-24
26966,-100000,11718,-2343,2042,-49,34,-24
26967,-100000,11718,-2343,2043,-49,34,-24
26969,-100000,11718,-2343,2043,-49,34,-24
26970,-100000,11718,-2343,2045,-49,34,-24
26972,-100000,11718,-2343,2040,-49,34,-24
26973,-100000,11718,0,2041,-49,34,-24
26975,-100000,11718,0,2046,-49,34,-24
26976,-100000,11718,0,2047,-49,34,-24
26978,-100000,11718,0,2048,-49,34,-24
26979,-100000,11718,0,2041,-49,34,-24
26981,-100000,11718,0,2051,-49,34,-25
26982,-99218,13281,-2343,2041,-49,34,-25
26984,-99218,13281,-2343,2046,-49,34,-25
26985,-99218,13281,-2343,2032,-49,34,-25
26987,-99218,13281,-2343,2041,-49,34,-25
26988,-99218,13281,-2343,2040,-49,34,-25
26990,-99218,13281,-2343,2038,-49,34,-25
26991,-99218,13281,-2343,2035,-49,33,-25
26993,-99218,11718,-1562,2041,-49,33,-25
26994,-99218,11718,-1562,2045,-49,34,-25
26996,-99218,11718,-1562,2038,-49,34,-25
26997,-99218,11718,-1562,2035,-49,33,-25
26999,-99218,11718,-1562,2041,-49,33,-25
27000,-99218,11718,-1562,2041,-49,33,-25
27002,-99218,11718,-1562,2042,-49,33,-25
27003,-99218,12500,-781,2043,-49,33,-25
27005,-99218,12500,-781,2045,-49,33,-25
27006,-99218,12500,-781,2042,-49,33,-25
27008,-99218,12500,-781,2046,-49,33,-25
27009,-99218,12500,-781,2031,-49,33,-25
27011,-99218,12500,-781,2037,-49,33,-25
27012,-99218,12500,-781,2032,-49,33,-25
27014,-100781,13281,-2343,2042,-49,33,-25
27015,-100781,13281,-2343,2035,-49,33,-25
27071,-100000,12500,-2343,2042,-49,30,-27
27072,-100000,12500,-2343,2048,-49,30,-27
27074,-100000,12500,-2343,2033,-49,30,-27
27075,-100000,12500,-2343,2041,-49,29,-27
27077,-100000,12500,-2343,2037,-49,29,-27
27078,-100000,12500,-2343,2038,-49,29,-27
27080,-100000,12500,-2343,2040,-49,29,-27
27081,-100000,12500,-2343,2037,-49,29,-27
27083,-100000,12500,-2343,2036,-49,29,-27
27084,-100000,12500,-781,2040,-49,29,-27
27086,-100000,12500,-781,2032,-49,29,-27
27087,-100000,12500,-781,2048,-49,29,-27
27089,-100000,12500,-781,2036,-49,29,-27
27090,-100000,12500,-781,2033,-49,29,-27
27092,-100000,12500,-781,2048,-49,29,-27
27093,-100000,12500,-781,2042,-49,29,-27
27095,-99218,11718,-2343,2035,-49,29,-27
27096,-99218,11718,-2343,2043,-49,29,-28
27098,-99218,11718,-2343,2040,-49,29,-28
27099,-99218,11718,-2343,2032,-49,29,-28
27101,-99218,11718,-2343,2035,-49,29,-28
27102,-99218,11718,-2343,2049,-49,29,-28
27104,-100000,11718,-1562,2043,-49,29,-28
27105,-100000,11718,-1562,2047,-49,29,-28
27107,-100000,11718,-1562,2040,-50,29,-28
27108,-100000,11718,-1562,2043,-50,29,-28
27110,-100000,11718,-1562,2043,-50,29,-28
27111,-100000,11718,-1562,2038,-50,29,-28
27113,-100000,11718,-1562,2041,-50,29,-29
27114,-100000,12500,-1562,2046,-50,29,-29
27116,-100000,12500,-1562,2036,-49,29,-29
27117,-100000,12500,-1562,2041,-49,29,-29
27119,-100000,12500,-1562,2037,-50,30,-29
27120,-100000,12500,-1562,2032,-50,29,-29
27122,-100000,12500,-1562,2043,-50,29,-29
27123,-100000,12500,-1562,2037,-50,29,-29
27293,-100781,10937,-1562,2035,-56,28,-35
27295,-100781,10937,-1562,2040,-56,28,-35
27296,-100000,10156,-1562,2032,-56,28,-35
27298,-100000,10156,-1562,2041,-57,28,-35
27299,-100000,10156,-1562,2041,-57,28,-35
27301,-100000,10156,-1562,2032,-57,28,-35
27302,-100000,10156,-1562,2041,-57,28,-35
27304,-100000,10156,-1562,2045,-57,28,-35
27305,-100000,10156,-1562,2038,-57,28,-35
27307,-100000,13281,-3125,2033,-57,28,-35
27308,-100000,13281,-3125,2041,-57,27,-36
27310,-100000,13281,-3125,2045,-57,27,-36
27311,-100000,13281,-3125,2035,-57,27,-36
27312,-100000,13281,-3125,2037,-57,27,-36
27314,-100000,13281,-3125,2041,-57,28,-36
27316,-100000,13281,-3125,2043,-57,28,-36
27317,-100781,12500,-1562,2043,-58,28,-36
27319,-100781,12500,-1562,2041,-57,28,-37
27320,-100781,12500,-1562,2032,-58,27,-36
27322,-100781,12500,-1562,2046,-58,27,-36
27323,-100781,12500,-1562,2046,-58,27,-37
27325,-100781,12500,-1562,2049,-58,27,-37
27326,-100781,12500,-1562,2043,-58,27,-37
27328,-100000,11718,-1562,2032,-58,27,-37
27329,-100000,11718,-1562,2033,-58,27,-37
27331,-100000,11718,-1562,2042,-58,27,-37
27332,-100000,11718,-1562,2051,-58,27,-37
27334,-100000,11718,-1562,2042,-58,27,-37
27335,-100000,11718,-1562,2037,-58,27,-37
27337,-100000,11718,-2343,2042,-58,27,-37
27338,-100000,11718,-2343,2046,-58,27,-37
27339,-100000,11718,-2343,2041,-58,27,-37
27341,-100000,11718,-2343,2043,-58,27,-37
27343,-100000,11718,-2343,2040,-58,27,-37
27345,-100000,11718,-2343,2045,-58,27,-37
27347,-99218,11718,0,2042,-58,27,-37
27349,-99218,11718,0,2042,-58,27,-38
27350,-99218,11718,0,2043,-58,27,-38
27352,-99218,11718,0,2037,-58,27,-38
27353,-99218,11718,0,2043,-58,27,-38
27355,-99218,11718,0,2048,-59,27,-38
27356,-99218,11718,0,2042,-59,27,-38
27358,-100000,10156,-3125,2041,-59,27,-38
27359,-100000,10156,-3125,2031,-59,27,-38
27361,-100000,10156,-3125,2041,-59,27,-38
27362,-100000,10156,-3125,2040,-59,27,-38
27363,-100000,10156,-3125,2049,-59,27,-38
27365,-100000,10156,-3125,2037,-59,27,-38
27367,-100781,13281,-2343,2046,-59,27,-38
27368,-100781,13281,-2343,2035,-59,27,-38
27370,-100781,13281,-2343,2032,-59,27,-38
27371,-100781,13281,-2343,2056,-59,27,-38
27373,-100781,13281,-2343,2053,-59,27,-38
27374,-100781,13281,-2343,2036,-59,27,-38
27376,-100781,13281,-2343,2040,-59,27,-38
27377,-100781,12500,-2343,2051,-59,27,-38
27379,-100781,12500,-2343,2035,-59,27,-38
27380,-100781,12500,-2343,2041,-59,27,-38
27382,-100781,12500,-2343,2051,-59,27,-38
27383,-100781,12500,-2343,2037,-59,27,-38
27385,-100781,12500,-2343,2038,-59,27,-39
27386,-100781,12500,-2343,2051,-59,27,-39
27388,-100781,12500,-2343,2040,-59,27,-39
27389,-100781,12500,-2343,2031,-59,27,-38
27391,-100781,12500,-2343,2038,-59,27,-39
27392,-100781,12500,-2343,2037,-59,27,-39
27394,-100781,12500,-2343,2045,-59,27,-39
27395,-100781,12500,-2343,2049,-59,27,-39
27397,-100781,12500,-2343,2051,-59,27,-39
27398,-100000,12500,-1562,2045,-59,27,-39
27415,-100000,12500,-1562,2046,-59,26,-39
27417,-100000,12500,-1562,2042,-59,26,-39
27419,-100000,12500,-1562,2045,-59,26,-39
27420,-100000,12500,-1562,2051,-59,26,-38
27422,-100000,12500,-1562,2046,-59,26,-38
27423,-100000,12500,-1562,2045,-59,26,-38
27425,-100000,12500,-1562,2046,-59,26,-38
27426,-100000,12500,-1562,2040,-59,26,-38
27428,-100000,12500,-781,2037,-59,26,-38
27429,-100000,12500,-781,2035,-59,26,-38
27431,-100000,12500,-781,2041,-59,26,-38
27432,-100000,12500,-781,2035,-59,26,-38
27434,-100000,12500,-781,2046,-59,26,-38
27435,-100000,12500,-781,2033,-59,26,-38
27437,-100000,12500,-781,2031,-59,26,-38
27438,-100781,12500,-781,2047,-59,26,-38
27440,-100781,12500,-781,2046,-59,26,-39
27441,-100781,12500,-781,2042,-59,25,-39
27443,-100781,12500,-781,2042,-59,25,-39
27444,-100781,12500,-781,2045,-59,25,-39
27446,-100781,12500,-781,2046,-59,25,-39
27447,-100781,12500,-781,2048,-59,25,-39
27449,-100000,12500,-781,2037,-59,25,-39
27450,-100000,12500,-781,2051,-59,25,-39
27452,-100000,12500,-781,2047,-59,25,-39
27453,-100000,12500,-781,2046,-59,25,-39
27455,-100000,12500,-781,2036,-59,25,-39
27456,-100000,12500,-781,2041,-59,25,-39
27458,-100000,12500,-781,2038,-59,25,-39
27459,-100000,12500,-781,2041,-59,25,-39
27461,-100000,12500,-781,2046,-59,25,-39
27462,-100000,12500,-781,2041,-59,25,-39
27464,-100000,12500,-781,2041,-59,25,-39
27465,-100000,12500,-781,2041,-59,25,-39
27467,-100000,12500,-781,2038,-59,25,-39
27470,-99218,11718,0,2046,-59,26,-39
27471,-99218,11718,0,2030,-59,26,-39
27473,-99218,11718,0,2043,-59,26,-39
27474,-99218,11718,0,2040,-59,26,-39
27476,-99218,11718,0,2041,-59,26,-39
27477,-99218,11718,0,2043,-59,26,-39
27479,-100000,13281,-2343,2038,-59,26,-39
27480,-100000,13281,-2343,2040,-59,26,-39
27482,-100000,13281,-2343,2051,-59,26,-39
27483,-100000,13281,-2343,2037,-59,26,-39
27485,-100000,13281,-2343,2046,-59,26,-39
27486,-100000,13281,-2343,2049,-59,26,-39
27488,-100000,13281,-2343,2045,-59,26,-39
27489,-99218,10937,-781,2037,-59,26,-39
27491,-99218,10937,-781,2041,-59,26,-39
27492,-99218,10937,-781,2041,-59,26,-39
27494,-99218,10937,-781,2051,-59,26,-39
27495,-99218,10937,-781,2041,-59,25,-39
27497,-99218,10937,-781,2035,-59,25,-40
27498,-100000,12500,0,2051,-59,25,-39
27500,-100000,12500,0,2036,-59,25,-39
27501,-100000,12500,0,2040,-59,25,-39
27503,-100000,12500,0,2047,-59,25,-39
27504,-100000,12500,0,2036,-59,25,-39
27506,-100000,12500,0,2041,-59,25,-39
27507,-100000,12500,0,2041,-59,25,-40
27509,-100000,12500,-781,2033,-59,25,-40
27510,-100000,12500,-781,2041,-59,25,-39
27512,-100000,12500,-781,2041,-59,25,-39
27513,-100000,12500,-781,2040,-59,25,-40
27515,-100000,12500,-781,2041,-59,25,-39
27516,-100000,12500,-781,2045,-59,25,-40
27518,-100000,12500,-781,2032,-59,25,-40
27519,-99218,13281,-2343,2046,-59,25,-40
27521,-99218,13281,-2343,2037,-59,25,-40
27522,-99218,13281,-2343,2040,-59,25,-40
27524,-99218,13281,-2343,2031,-59,25,-40
27567,-99218,12500,0,2046,-58,24,-41
27569,-99218,12500,-1562,2040,-58,24,-41
27570,-99218,12500,-1562,2036,-58,24,-41
27572,-99218,12500,-1562,2037,-57,24,-41
27573,-99218,12500,-1562,2048,-57,24,-41
27575,-99218,12500,-1562,2037,-57,24,-41
27576,-99218,12500,-1562,2035,-57,24,-41
27578,-99218,12500,-1562,2046,-57,24,-41
27579,-99218,13281,-781,2042,-57,24,-41
27581,-99218,13281,-781,2032,-57,24,-41
27582,-99218,13281,-781,2042,-57,24,-41
27584,-99218,13281,-781,2041,-57,24,-41
27585,-99218,13281,-781,2047,-57,24,-41
27587,-99218,13281,-781,2033,-57,24,-41
27588,-99218,13281,-781,2046,-57,24,-41
27590,-99218,14062,-781,2041,-57,24,-41
27591,-99218,14062,-781,2040,-57,24,-41
27593,-99218,14062,-781,2049,-57,24,-41
27594,-99218,14062,-781,2043,-57,23,-41
27596,-99218,14062,-781,2043,-57,23,-41
27597,-99218,14062,-781,2041,-57,23,-41
27599,-99218,14062,-781,2041,-57,23,-41
27600,-100000,14062,-781,2051,-57,23,-41
27602,-100000,14062,-781,2043,-57,23,-41
27603,-100000,14062,-781,2040,-57,23,-41
27605,-100000,14062,-781,2031,-57,23,-41
27606,-100000,14062,-781,2040,-57,23,-41
27608,-100000,14062,-781,2047,-57,23,-41
27609,-100000,14062,-781,2037,-57,23,-41
27611,-99218,13281,-781,2028,-57,23,-41
27612,-99218,13281,-781,2046,-56,23,-41
27614,-99218,13281,-781,2038,-56,23,-41
27615,-99218,13281,-781,2037,-56,23,-41
27617,-99218,13281,-781,2046,-56,23,-41
27618,-99218,13281,-781,2035,-56,23,-41
27620,-98437,12500,-781,2047,-56,23,-41
27623,-98437,12500,-781,2031,-56,23,-41
27624,-98437,12500,-781,2036,-56,23,-41
27626,-98437,12500,-781,2047,-56,23,-41
27627,-98437,12500,-781,2046,-56,24,-41
27629,-98437,12500,-781,2048,-56,24,-41
27630,-97656,12500,781,2041,-56,24,-41
27632,-97656,12500,781,2038,-56,24,-41
27633,-97656,12500,781,2051,-56,24,-41
27635,-97656,12500,781,2038,-56,24,-41
27636,-97656,12500,781,2040,-55,24,-41
27638,-97656,12500,781,2035,-55,24,-41
27639,-97656,12500,781,2040,-55,24,-41
27641,-98437,14062,-781,2051,-55,24,-41
27642,-98437,14062,-781,2046,-55,24,-41
27644,-98437,14062,-781,2047,-55,24,-41
27645,-98437,14062,-781,2042,-55,24,-41
27647,-98437,14062,-781,2051,-55,24,-41
27648,-98437,14062,-781,2049,-54,24,-41
27650,-98437,13281,-1562,2043,-54,24,-41
27651,-98437,13281,-1562,2053,-54,24,-41
27653,-98437,13281,-1562,2048,-54,24,-41
27654,-98437,13281,-1562,2038,-54,24,-41
27656,-98437,13281,-1562,2041,-54,24,-41
27657,-98437,13281,-1562,2043,-54,24,-41
27659,-98437,13281,-1562,2038,-54,24,-40
27660,-99218,14062,0,2049,-54,24,-40
27662,-99218,14062,0,2042,-54,24,-40
27663,-99218,14062,0,2040,-54,24,-40
27665,-99218,14062,0,2049,-54,24,-40
27666,-99218,14062,0,2038,-54,24,-40
27668,-99218,14062,0,2042,-54,24,-40
27669,-99218,14062,0,2041,-54,24,-40
27671,-98437,12500,0,2049,-54,24,-40
27672,-98437,12500,0,2048,-54,24,-40
27674,-98437,12500,0,2036,-54,24,-40
27675,-98437,12500,0,2035,-54,24,-40
27677,-98437,12500,0,2036,-54,24,-40
27695,-98437,12500,-781,2033,-53,24,-40
27697,-98437,12500,-781,2038,-53,24,-40
27698,-98437,12500,-781,2048,-53,24,-40
27700,-98437,12500,-781,2036,-53,24,-40
27701,-99218,14062,0,2033,-53,24,-40
27703,-99218,14062,0,2041,-53,24,-40
27704,-99218,14062,0,2051,-53,24,-40
27706,-99218,14062,0,2054,-53,24,-40
27707,-99218,14062,0,2040,-53,24,-39
27709,-99218,14062,0,2040,-53,24,-39
27710,-99218,14062,0,2042,-52,24,-39
27712,-98437,14062,-781,2032,-52,24,-39
27713,-98437,14062,-781,2031,-52,24,-39
27715,-98437,14062,-781,2043,-52,24,-39
27716,-98437,14062,-781,2041,-52,24,-39
27718,-98437,14062,-781,2040,-52,24,-39
27719,-98437,14062,-781,2036,-52,24,-39
27721,-98437,13281,-781,2036,-52,24,-39
27722,-98437,13281,-781,2042,-52,24,-39
27724,-98437,13281,-781,2047,-52,24,-39
27725,-98437,13281,-781,2032,-52,24,-39
27727,-98437,13281,-781,2040,-52,24,-39
27728,-98437,13281,-781,2046,-52,24,-39
27730,-98437,13281,-781,2038,-52,24,-39
27731,-97656,13281,-1562,2040,-52,24,-39
27733,-97656,13281,-1562,2048,-51,23,-39
27734,-97656,13281,-1562,2038,-51,23,-39
27736,-97656,13281,-1562,2043,-51,23,-39
27737,-97656,13281,-1562,2040,-51,23,-39
27739,-97656,13281,-1562,2049,-51,24,-39
27740,-97656,13281,-1562,2041,-51,24,-39
27742,-98437,14062,-1562,2035,-51,24,-39
27743,-98437,14062,-1562,2040,-51,24,-39
27745,-98437,14062,-1562,2040,-51,24,-39
27746,-98437,14062,-1562,2042,-51,24,-39
27748,-98437,14062,-1562,2031,-51,23,-39
27749,-98437,14062,-1562,2054,-51,23,-39
27751,-98437,13281,-1562,2041,-51,24,-39
27753,-98437,13281,-1562,2041,-51,24,-39
27754,-98437,13281,-1562,2052,-51,24,-39
27756,-98437,13281,-1562,2046,-50,24,-39
27757,-98437,13281,-1562,2048,-50,24,-39
27759,-98437,13281,-1562,2042,-50,24,-39
27760,-98437,13281,-1562,2045,-50,24,-39
27762,-99218,12500,-1562,2045,-50,24,-40
27763,-99218,12500,-1562,2047,-50,24,-39
27765,-99218,12500,-1562,2038,-50,24,-39
27766,-99218,12500,-1562,2041,-50,24,-39
27768,-99218,12500,-1562,2045,-50,24,-39
27769,-99218,12500,-1562,2032,-50,24,-39
27771,-99218,12500,-1562,2048,-50,24,-39
27772,-98437,12500,-1562,2033,-50,24,-39
27774,-98437,12500,-1562,2048,-50,24,-39
27775,-98437,12500,-1562,2049,-50,24,-39
27777,-98437,12500,-1562,2032,-50,24,-39
27778,-98437,12500,-1562,2051,-50,24,-39
27780,-98437,12500,-1562,2030,-50,24,-39
27781,-98437,12500,-1562,2037,-50,24,-39
27783,-98437,13281,-1562,2035,-50,24,-39
27784,-98437,13281,-1562,2053,-50,24,-39
27786,-98437,13281,-1562,2037,-50,24,-39
27787,-98437,13281,-1562,2031,-50,24,-39
27789,-98437,13281,-1562,2041,-50,24,-39
27790,-98437,13281,-1562,2048,-50,24,-39
27792,-98437,13281,-1562,2045,-50,24,-39
27793,-98437,13281,-1562,2035,-50,24,-39
27795,-98437,13281,-1562,2051,-50,24,-39
27796,-98437,13281,-1562,2036,-49,24,-39
27798,-98437,13281,-1562,2033,-49,24,-39
27799,-98437,13281,-1562,2040,-49,24,-39
27801,-98437,13281,-1562,2033,-49,24,-39
27802,-99218,14843,-1562,2038,-49,24,-39
27804,-99218,14843,-1562,2045,-49,24,-39
27859,-99218,13281,-1562,2038,-48,24,-38
27861,-99218,13281,-1562,2042,-48,24,-38
27863,-100000,14062,-2343,2042,-48,24,-38
27864,-100000,14062,-2343,2032,-48,24,-38
27866,-100000,14062,-2343,2041,-48,24,-38
27867,-100000,14062,-2343,2045,-48,24,-39
27869,-100000,14062,-2343,2031,-48,24,-38
27870,-100000,14062,-2343,2033,-48,24,-39
27872,-100000,14062,-2343,2041,-48,24,-39
27873,-100000,14062,-2343,2042,-48,24,-39
27875,-100000,14062,-2343,2042,-48,24,-39
27876,-100000,14062,-2343,2042,-48,24,-39
27878,-100000,14062,-2343,2035,-48,24,-39
27879,-100000,14062,-2343,2040,-48,24,-39
27881,-100000,14062,-2343,2040,-48,24,-39
27882,-100000,14062,-2343,2032,-48,24,-39
27884,-100000,14062,-1562,2033,-48,24,-39
27885,-100000,14062,-1562,2040,-48,24,-39
27887,-100000,14062,-1562,2035,-48,24,-39
27888,-100000,14062,-1562,2046,-48,24,-39
27890,-100000,14062,-1562,2042,-48,24,-39
27891,-100000,14062,-1562,2041,-48,24,-38
27893,-99218,12500,-1562,2032,-48,24,-38
27894,-99218,12500,-1562,2041,-48,24,-38
27896,-99218,12500,-1562,2041,-48,24,-38
27897,-99218,12500,-1562,2041,-48,24,-38
27899,-99218,12500,-1562,2043,-48,24,-39
27900,-99218,12500,-1562,2041,-48,24,-39
27902,-99218,12500,-1562,2033,-48,24,-39
27903,-100000,13281,-2343,2046,-48,24,-38
27905,-100000,13281,-2343,2032,-48,24,-39
27906,-100000,13281,-2343,2045,-48,24,-39
27908,-100000,13281,-2343,2036,-48,24,-39
27909,-100000,13281,-2343,2045,-48,24,-39
27911,-100000,13281,-2343,2049,-48,24,-39
27914,-99218,13281,-1562,2033,-48,24,-39
27915,-99218,13281,-1562,2037,-48,24,-39
27917,-99218,13281,-1562,2041,-48,24,-38
27918,-99218,13281,-1562,2038,-48,24,-38
27920,-99218,13281,-1562,2049,-48,24,-39
27921,-99218,13281,-1562,2038,-48,24,-39
27923,-99218,12500,-2343,2036,-48,25,-39
27924,-99218,12500,-2343,2037,-48,25,-39
27926,-99218,12500,-2343,2040,-48,24,-39
27927,-99218,12500,-2343,2038,-48,24,-39
27929,-99218,12500,-2343,2041,-48,24,-38
27930,-99218,12500,-2343,2040,-48,24,-38
27932,-99218,12500,-2343,2046,-48,24,-38
27933,-99218,13281,-1562,2040,-48,24,-38
27935,-99218,13281,-1562,2041,-48,24,-38
27936,-99218,13281,-1562,2045,-48,24,-39
27938,-99218,13281,-1562,2037,-48,24,-39
27939,-99218,13281,-1562,2043,-48,24,-39
27941,-99218,13281,-1562,2033,-48,24,-39
27942,-99218,13281,-1562,2041,-48,24,-39
27944,-98437,12500,-3125,2038,-48,24,-39
27945,-98437,12500,-3125,2041,-48,24,-39
27947,-98437,12500,-3125,2030,-48,24,-39
27948,-98437,12500,-3125,2036,-48,24,-39
27950,-98437,12500,-3125,2035,-48,24,-39
27951,-98437,12500,-3125,2041,-48,24,-38
27953,-98437,12500,-3125,2035,-48,24,-38
27954,-98437,13281,-2343,2041,-48,24,-38
27956,-98437,13281,-2343,2038,-48,24,-38
27957,-98437,13281,-2343,2049,-48,24,-38
27959,-98437,13281,-2343,2038,-48,24,-38
27960,-98437,13281,-2343,2046,-48,24,-39
27962,-98437,13281,-2343,2033,-48,24,-39
27963,-98437,13281,-2343,2046,-48,24,-39
27965,-100000,14062,-2343,2043,-48,24,-39
27967,-100000,14062,-2343,2041,-48,24,-39
27982,-100000,12500,-1562,2048,-49,25,-40
27984,-100000,12500,-1562,2031,-49,25,-40
27985,-100000,12500,-1562,2047,-49,25,-40
27987,-100000,12500,-1562,2033,-49,25,-40
27988,-100000,12500,-1562,2032,-49,25,-40
27990,-100000,12500,-1562,2042,-49,25,-40
27991,-100000,12500,-1562,2040,-49,25,-40
27993,-100000,12500,-1562,2041,-49,25,-40
27994,-100000,13281,-2343,2045,-49,25,-40
27996,-100000,13281,-2343,2036,-49,25,-40
27997,-100000,13281,-2343,2032,-49,25,-40
27999,-100000,13281,-2343,2049,-49,25,-40
28000,-100000,13281,-2343,2047,-49,25,-40
28002,-100000,13281,-2343,2043,-49,25,-40
28003,-100000,13281,-2343,2051,-49,25,-40
28005,-100781,13281,-2343,2041,-49,25,-39
28006,-100781,13281,-2343,2037,-49,25,-39
28008,-100781,13281,-2343,2040,-49,25,-40
28009,-100781,13281,-2343,2048,-49,25,-40
28011,-100781,13281,-2343,2041,-50,26,-40
28012,-100781,13281,-2343,2040,-50,26,-40
28014,-100781,13281,-2343,2036,-50,26,-40
28015,-99218,13281,-2343,2036,-50,26,-40
28017,-99218,13281,-2343,2043,-50,26,-40
28018,-99218,13281,-2343,2042,-50,26,-40
28020,-99218,13281,-2343,2038,-50,26,-40
28021,-99218,13281,-2343,2043,-50,26,-39
28023,-99218,13281,-2343,2033,-50,26,-39
28024,-100000,13281,-2343,2041,-50,27,-39
28026,-100000,13281,-2343,2036,-50,27,-39
28027,-100000,13281,-2343,2031,-50,27,-40
28029,-100000,13281,-2343,2051,-50,27,-40
28030,-100000,13281,-2343,2043,-51,26,-40
28032,-100000,13281,-2343,2040,-51,26,-40
28062,-100781,12500,-2343,2042,-52,26,-40
28064,-100781,12500,-2343,2040,-52,26,-40
28066,-100000,11718,-2343,2045,-52,26,-40
28067,-100000,11718,-2343,2041,-52,26,-40
28069,-100000,11718,-2343,2047,-52,26,-40
28070,-100000,11718,-2343,2048,-52,26,-40
28072,-100000,11718,-2343,2032,-52,26,-40
28073,-100000,11718,-2343,2037,-52,26,-40
28075,-100781,13281,-3125,2035,-52,26,-40
28076,-100781,13281,-3125,2041,-52,26,-40
28078,-100781,13281,-3125,2037,-52,26,-40
28079,-100781,13281,-3125,2046,-52,26,-40
28081,-100781,13281,-3125,2037,-52,26,-40
28082,-100781,13281,-3125,2041,-52,26,-40
28084,-100781,13281,-3125,2043,-52,26,-40
28085,-100781,12500,-1562,2032,-52,26,-40
28086,-100781,12500,-1562,2037,-53,26,-40
28088,-100781,12500,-1562,2042,-53,26,-40
28089,-100781,12500,-1562,2032,-53,26,-40
28091,-100781,12500,-1562,2037,-53,26,-40
28092,-100781,12500,-1562,2041,-53,26,-40
28094,-100781,12500,-1562,2035,-53,27,-40
28095,-101562,13281,-3125,2036,-53,27,-40
28097,-101562,13281,-3125,2046,-53,27,-40
28098,-101562,13281,-3125,2040,-53,27,-40
28100,-101562,13281,-3125,2041,-53,27,-40
28101,-101562,13281,-3125,2049,-53,27,-40
28103,-101562,13281,-3125,2033,-54,27,-39
28104,-101562,13281,-3125,2037,-54,27,-39
28106,-101562,13281,-2343,2042,-54,27,-39
28107,-101562,13281,-2343,2028,-54,27,-40
28109,-101562,13281,-2343,2040,-54,27,-40
28110,-101562,13281,-2343,2051,-54,27,-40
28112,-101562,13281,-2343,2046,-54,27,-40
28113,-101562,13281,-2343,2032,-54,27,-40
28117,-100000,11718,-2343,2048,-54,27,-40
28118,-100000,11718,-2343,2042,-55,27,-40
28120,-100000,11718,-2343,2047,-55,27,-40
28121,-100000,11718,-2343,2035,-55,27,-40
28123,-100000,11718,-2343,2043,-55,27,-40
28124,-100000,11718,-2343,2038,-55,27,-40
28126,-100000,12500,-3125,2049,-55,27,-40
28127,-100000,12500,-3125,2038,-55,27,-40
28129,-100000,12500,-3125,2046,-55,27,-40
28130,-100000,12500,-3125,2049,-56,27,-40
28132,-100000,12500,-3125,2031,-56,27,-40
28133,-100000,12500,-3125,2041,-56,27,-40
28135,-100000,12500,-3125,2042,-56,27,-40
28136,-100781,12500,-2343,2045,-56,27,-40
28138,-100781,12500,-2343,2032,-56,27,-40
28139,-100781,12500,-2343,2038,-56,27,-40
28141,-100781,12500,-2343,2041,-56,27,-40
28142,-100781,12500,-2343,2036,-56,27,-40
28144,-100781,12500,-2343,2042,-56,27,-40
28145,-100781,12500,-2343,2038,-56,27,-40
28147,-100000,13281,-2343,2046,-56,27,-40
28148,-100000,13281,-2343,2037,-56,27,-40
28150,-100000,13281,-2343,2038,-56,27,-40
28151,-100000,13281,-2343,2032,-57,27,-40
28153,-100000,13281,-2343,2047,-57,27,-40
28154,-100000,13281,-2343,2041,-57,27,-40
28156,-100781,14062,-3125,2042,-57,27,-41
28157,-100781,14062,-3125,2040,-57,27,-41
28159,-100781,14062,-3125,2040,-57,27,-41
28160,-100781,14062,-3125,2030,-57,27,-41
28162,-100781,14062,-3125,2041,-57,27,-41
28163,-100781,14062,-3125,2036,-57,27,-41
28165,-100781,14062,-3125,2046,-57,27,-41
28166,-100000,13281,-3125,2040,-57,27,-41
28168,-100000,13281,-3125,2033,-57,27,-41
28185,-100781,12500,-2343,2033,-59,28,-41
28187,-100781,11718,-2343,2047,-59,28,-41
28188,-100781,11718,-2343,2035,-59,28,-41
28190,-100781,11718,-2343,2038,-60,27,-41
28191,-100781,11718,-2343,2038,-60,27,-41
28193,-100781,11718,-2343,2049,-60,27,-41
28194,-100781,11718,-2343,2047,-60,27,-41
28196,-100781,11718,-2343,2035,-60,28,-41
28197,-100000,12500,-2343,2045,-60,28,-41
28199,-100000,12500,-2343,2041,-60,27,-41
28200,-100000,12500,-2343,2037,-60,28,-41
28202,-100000,12500,-2343,2047,-60,28,-41
28203,-100000,12500,-2343,2042,-60,28,-41
28205,-100000,12500,-2343,2041,-60,28,-41
28206,-100781,14062,-3125,2035,-60,28,-42
28208,-100781,14062,-3125,2041,-60,28,-42
28209,-100781,14062,-3125,2036,-60,28,-41
28211,-100781,14062,-3125,2035,-60,28,-41
28212,-100781,14062,-3125,2036,-60,28,-41
28214,-100781,14062,-3125,2036,-60,28,-41
28215,-100781,14062,-3125,2037,-60,28,-41
28217,-100781,14843,-2343,2036,-60,28,-41
28218,-100781,14843,-2343,2040,-60,28,-41
28220,-100781,14843,-2343,2047,-60,28,-41
28221,-100781,14843,-2343,2040,-61,28,-41
28223,-100781,14843,-2343,2036,-61,28,-41
28224,-100781,14843,-2343,2042,-61,28,-41
28226,-100781,14843,-2343,2041,-61,28,-41
28227,-100781,14062,-3125,2046,-61,28,-40
28229,-100781,14062,-3125,2046,-61,28,-40
28230,-100781,14062,-3125,2032,-61,28,-41
28232,-100781,14062,-3125,2045,-61,28,-41
28233,-100781,14062,-3125,2038,-62,28,-41
28235,-100781,14062,-3125,2038,-62,28,-41
28236,-100781,14062,-3125,2049,-62,28,-41
28262,-100781,13281,-2343,2042,-63,29,-40
28264,-100781,13281,-2343,2042,-63,29,-41
28265,-100781,13281,-2343,2036,-63,29,-41
28267,-100781,13281,-2343,2047,-64,29,-41
28268,-100781,13281,-2343,2037,-64,29,-41
28270,-100781,13281,-2343,2035,-64,29,-41
28271,-100781,13281,-2343,2041,-64,29,-41
28273,-100781,13281,-2343,2045,-64,29,-41
28274,-100781,13281,-2343,2049,-64,29,-41
28276,-100781,13281,-2343,2051,-64,29,-41
28277,-100000,14062,-2343,2033,-64,29,-41
28279,-100000,14062,-2343,2042,-64,29,-41
28280,-100000,14062,-2343,2043,-64,29,-41
28282,-100000,14062,-2343,2041,-64,29,-41
28283,-100000,14062,-2343,2043,-65,29,-41
28285,-100000,14062,-2343,2051,-65,29,-41
28286,-100000,14062,-2343,2035,-65,29,-41
28288,-100000,14062,-1562,2038,-65,29,-41
28289,-100000,14062,-1562,2037,-65,29,-41
28291,-100000,14062,-1562,2040,-65,29,-41
28292,-100000,14062,-1562,2043,-65,29,-40
28294,-100000,14062,-1562,2040,-65,29,-40
28295,-100000,14062,-1562,2035,-65,29,-40
28297,-100000,14062,-1562,2041,-65,29,-40
28298,-100781,14062,-3125,2036,-66,29,-40
28300,-100781,14062,-3125,2038,-66,29,-40
28301,-100781,14062,-3125,2041,-66,29,-40
28303,-100781,14062,-3125,2037,-66,29,-40
28304,-100781,14062,-3125,2033,-66,29,-40
28306,-100781,14062,-3125,2032,-66,29,-40
28307,-100000,13281,-2343,2038,-66,29,-40
28309,-100000,13281,-2343,2041,-66,29,-40
28310,-100000,13281,-2343,2032,-66,29,-40
28312,-100000,13281,-2343,2037,-66,29,-40
28315,-100000,13281,-2343,2047,-66,29,-40
28316,-100000,13281,-2343,2043,-66,30,-40
28318,-100781,14062,-2343,2043,-66,30,-40
28319,-100781,14062,-2343,2037,-66,30,-40
28321,-100781,14062,-2343,2041,-66,30,-40
28322,-100781,14062,-2343,2043,-66,30,-40
28324,-100781,14062,-2343,2046,-67,30,-40
28325,-100781,14062,-2343,2042,-67,30,-40
28327,-100781,14062,-2343,2038,-67,30,-40
28328,-100000,14062,-1562,2036,-67,30,-40
28330,-100000,14062,-1562,2045,-67,30,-39
28331,-100000,14062,-1562,2041,-67,30,-39
28333,-100000,14062,-1562,2048,-67,30,-39
28334,-100000,14062,-1562,2043,-67,31,-39
28336,-100000,14062,-1562,2046,-67,31,-40
28337,-100000,14062,-1562,2047,-67,31,-40
28339,-99218,14843,-2343,2045,-67,30,-40
28340,-99218,14843,-2343,2041,-67,30,-40
28342,-99218,14843,-2343,2045,-67,30,-39
28343,-99218,14843,-2343,2043,-67,30,-39
28345,-99218,14843,-2343,2042,-68,30,-39
28346,-99218,14843,-2343,2046,-68,30,-40
28348,-99218,14062,-1562,2036,-68,30,-39
28349,-99218,14062,-1562,2032,-68,30,-39
28351,-99218,14062,-1562,2041,-68,30,-39
28352,-99218,14062,-1562,2038,-68,30,-39
28354,-99218,14062,-1562,2041,-68,30,-39
28355,-99218,14062,-1562,2041,-68,30,-39
28357,-99218,14062,-1562,2042,-68,30,-39
28358,-99218,14062,-2343,2042,-68,30,-39
28360,-99218,14062,-2343,2046,-69,30,-39
28361,-99218,14062,-2343,2052,-69,30,-39
28363,-99218,14062,-2343,2036,-69,30,-39
28364,-99218,14062,-2343,2038,-69,30,-39
28366,-99218,14062,-2343,2036,-69,30,-39
28367,-99218,14062,-2343,2041,-69,30,-39
28522,-98437,14062,-781,2047,-69,35,-34
28524,-98437,14062,-781,2038,-69,35,-34
28525,-98437,14062,-781,2037,-69,35,-34
28527,-98437,14062,-781,2041,-69,35,-34
28528,-98437,14062,-781,2047,-69,36,-34
28530,-98437,14062,-781,2041,-69,36,-34
28531,-97656,14062,-1562,2033,-69,36,-34
28533,-97656,14062,-1562,2041,-69,36,-34
28534,-97656,14062,-1562,2036,-69,36,-34
28536,-97656,14062,-1562,2035,-69,36,-34
28537,-97656,14062,-1562,2036,-69,36,-33
28539,-97656,14062,-1562,2035,-69,36,-33
28540,-97656,14062,-781,2035,-69,36,-33
28542,-97656,14062,-781,2041,-69,36,-33
28543,-97656,14062,-781,2038,-69,36,-33
28545,-97656,14062,-781,2032,-69,36,-33
28546,-97656,14062,-781,2031,-69,36,-33
28548,-97656,14062,-781,2033,-69,36,-33
28549,-97656,14062,-781,2043,-69,36,-33
28551,-96875,14843,-781,2033,-69,36,-33
28552,-96875,14843,-781,2031,-69,36,-33
28554,-96875,14843,-781,2032,-69,36,-33
28555,-96875,14843,-781,2046,-69,36,-33
28557,-96875,14843,-781,2048,-69,36,-33
28558,-96875,14843,-781,2036,-68,36,-33
28560,-96875,14843,-781,2036,-68,36,-33
28561,-96875,15625,-781,2035,-68,36,-33
28563,-96875,15625,-781,2035,-68,36,-33
28564,-96875,15625,-781,2037,-68,36,-32
28566,-96875,15625,-781,2038,-68,36,-32
28567,-96875,15625,-781,2041,-68,36,-32
28569,-96875,15625,-781,2038,-68,36,-32
28570,-96093,14843,781,2042,-68,36,-32
28572,-96093,14843,781,2037,-68,36,-32
28573,-96093,14843,781,2037,-68,37,-32
28575,-96093,14843,781,2035,-68,37,-32
28595,-96875,14843,0,2049,-66,38,-31
28597,-96875,14843,0,2032,-66,37,-31
28598,-96875,14843,0,2033,-66,37,-31
28600,-96875,14843,0,2035,-66,37,-31
28601,-96875,14843,-781,2052,-66,37,-31
28603,-96875,14843,-781,2047,-66,37,-31
28604,-96875,14843,-781,2031,-66,37,-31
28606,-96875,14843,-781,2046,-66,37,-31
28607,-96875,14843,-781,2041,-66,37,-31
28609,-96875,14843,-781,2045,-65,37,-31
28610,-96875,14843,-781,2038,-65,37,-31
28612,-96093,15625,-781,2041,-65,37,-31
28613,-96093,15625,-781,2031,-65,37,-30
28615,-96093,15625,-781,2051,-65,37,-30
28616,-96093,15625,-781,2045,-65,37,-30
28618,-96093,15625,-781,2046,-65,37,-30
28619,-96093,15625,-781,2035,-65,37,-30
28621,-96093,15625,0,2041,-65,37,-30
28622,-96093,15625,0,2042,-65,37,-30
28624,-96093,15625,0,2036,-65,37,-30
28625,-96093,15625,0,2048,-65,37,-30
28627,-96093,15625,0,2040,-65,38,-29
28628,-96093,15625,0,2045,-65,38,-29
28630,-96093,15625,0,2051,-65,37,-29
28631,-96093,14843,-781,2051,-64,37,-29
28633,-96093,14843,-781,2038,-64,37,-29
28634,-96093,14843,-781,2042,-64,38,-29
28636,-96093,14843,-781,2045,-64,38,-29
28637,-96093,14843,-781,2031,-64,38,-29
28639,-96093,14843,-781,2041,-64,38,-29
28640,-96093,14843,-781,2040,-64,37,-29
28642,-96875,14062,781,2041,-64,37,-29
28643,-96875,14062,781,2037,-63,38,-28
28645,-96875,14062,781,2048,-63,38,-28
28646,-96875,14062,781,2048,-63,38,-28
28648,-96875,14062,781,2037,-63,38,-28
28649,-96875,14062,781,2042,-63,38,-28
28651,-96875,15625,0,2037,-63,38,-28
28654,-96875,15625,0,2041,-63,38,-28
28655,-96875,15625,0,2038,-63,38,-28
28657,-96875,15625,0,2043,-63,38,-28
28658,-96875,15625,0,2041,-63,38,-28
28660,-96875,15625,0,2049,-62,38,-28
28661,-96093,15625,781,2043,-62,38,-28
28663,-96093,15625,781,2041,-62,38,-28
28664,-96093,15625,781,2041,-62,38,-28
28666,-96093,15625,781,2040,-62,38,-28
28667,-96093,15625,781,2046,-62,38,-27
28669,-96093,15625,781,2036,-62,38,-27
28670,-96093,15625,781,2040,-62,38,-27
28672,-95312,15625,781,2048,-62,38,-27
28673,-95312,15625,781,2042,-62,39,-27
28675,-95312,15625,781,2042,-62,39,-27
28676,-95312,15625,781,2048,-61,39,-27
28678,-95312,15625,781,2041,-61,39,-27
28679,-95312,15625,781,2035,-61,39,-27
28681,-95312,15625,781,2049,-61,39,-27
28682,-97656,16406,1562,2038,-60,39,-27
28684,-97656,16406,1562,2036,-60,39,-27
28685,-97656,16406,1562,2038,-60,39,-27
28687,-97656,16406,1562,2033,-60,39,-27
28688,-97656,16406,1562,2038,-59,39,-27
28690,-97656,16406,1562,2037,-59,39,-27
28691,-97656,16406,1562,2038,-59,39,-27
28693,-95312,15625,0,2047,-59,39,-27
28694,-95312,15625,0,2032,-59,39,-26
28696,-95312,15625,0,2042,-59,39,-26
28697,-95312,15625,0,2032,-59,39,-26
28699,-95312,15625,0,2042,-58,39,-26
28700,-95312,15625,0,2041,-58,39,-26
28702,-96093,16406,0,2031,-58,39,-26
28703,-96093,16406,0,2040,-58,39,-26
28705,-96093,16406,0,2031,-58,39,-25
28706,-96093,16406,0,2041,-58,39,-25
28708,-96093,16406,0,2046,-58,39,-25
28709,-96093,16406,0,2032,-58,39,-25
28729,-95312,15625,781,2042,-55,39,-25
28730,-95312,15625,781,2031,-55,39,-25
28732,-95312,14062,0,2047,-55,39,-24
28733,-95312,14062,0,2046,-55,39,-24
28735,-95312,14062,0,2046,-55,39,-24
28736,-95312,14062,0,2042,-54,39,-24
28738,-95312,14062,0,2031,-54,39,-24
28739,-95312,14062,0,2035,-54,39,-24
28741,-95312,14062,0,2032,-54,39,-24
28742,-95312,14843,1562,2043,-53,39,-24
28744,-95312,14843,1562,2043,-53,39,-24
28745,-95312,14843,1562,2042,-53,39,-24
28747,-95312,14843,1562,2035,-53,39,-24
28748,-95312,14843,1562,2040,-53,39,-24
28750,-95312,14843,1562,2047,-53,39,-24
28751,-95312,14843,1562,2035,-52,39,-24
28753,-94531,16406,781,2051,-52,39,-24
28754,-94531,16406,781,2041,-52,39,-24
28756,-94531,16406,781,2038,-52,39,-24
28757,-94531,16406,781,2038,-52,39,-23
28759,-94531,16406,781,2046,-51,39,-23
28760,-94531,16406,781,2035,-51,39,-23
28762,-94531,16406,781,2040,-51,39,-23
28763,-94531,16406,0,2049,-51,39,-23
28765,-94531,16406,0,2038,-51,38,-23
28766,-94531,16406,0,2036,-51,38,-23
28768,-94531,16406,0,2041,-51,38,-23
28769,-94531,16406,0,2037,-50,38,-23
28771,-94531,16406,0,2043,-50,38,-23
28772,-94531,16406,0,2048,-50,38,-23
28774,-96093,16406,0,2042,-50,38,-23
28775,-96093,16406,0,2046,-49,38,-23
28777,-96093,16406,0,2049,-49,38,-23
28778,-96093,16406,0,2035,-49,38,-23
28780,-96093,16406,0,2045,-49,38,-23
28781,-96093,16406,0,2040,-49,38,-23
28783,-95312,14843,781,2040,-48,38,-23
28784,-95312,14843,781,2041,-48,38,-23
28787,-95312,14843,781,2038,-48,38,-22
28789,-95312,14843,781,2035,-48,38,-22
28790,-95312,14843,781,2042,-48,38,-22
28792,-95312,14843,781,2051,-48,38,-22
28793,-96093,14843,781,2038,-47,38,-22
28795,-96093,14843,781,2036,-47,38,-22
28796,-96093,14843,781,2043,-47,38,-22
28798,-96093,14843,781,2045,-47,38,-22
28799,-96093,14843,781,2032,-47,38,-22
28801,-96093,14843,781,2036,-46,38,-22
28802,-96093,14843,781,2042,-46,38,-22
28804,-94531,16406,781,2047,-46,38,-22
28805,-94531,16406,781,2047,-46,38,-21
28807,-94531,16406,781,2035,-46,38,-21
28808,-94531,16406,781,2047,-46,38,-21
28810,-94531,16406,781,2042,-46,38,-21
28811,-94531,16406,781,2038,-45,38,-21
28813,-94531,16406,781,2037,-45,38,-21
28814,-95312,16406,781,2027,-45,38,-21
28816,-95312,16406,781,2031,-45,37,-21
28817,-95312,16406,781,2036,-45,37,-21
28819,-95312,16406,781,2047,-45,37,-21
28820,-95312,16406,781,2036,-44,37,-20
28822,-95312,16406,781,2038,-44,37,-20
28823,-95312,14843,1562,2042,-44,37,-20
28825,-95312,14843,1562,2038,-44,37,-20
28826,-95312,14843,1562,2038,-44,37,-20
28828,-95312,14843,1562,2038,-44,37,-20
28829,-95312,14843,1562,2042,-43,37,-19
28831,-95312,14843,1562,2031,-43,37,-19
28832,-95312,14843,1562,2031,-43,37,-19
28834,-95312,15625,2343,2036,-43,37,-20
28835,-95312,15625,2343,2041,-42,37,-19
28837,-95312,15625,2343,2041,-42,37,-19
28838,-95312,15625,2343,2032,-42,37,-19
28840,-95312,15625,2343,2040,-42,37,-19
28841,-95312,15625,2343,2036,-42,37,-19
28881,-95312,15625,0,2033,-38,37,-18
28882,-95312,15625,0,2041,-37,37,-18
28884,-96093,14843,0,2028,-37,36,-18
28885,-96093,14843,0,2046,-37,36,-18
28887,-96093,14843,0,2041,-37,36,-18
28888,-96093,14843,0,2031,-36,36,-17
28890,-96093,14843,0,2041,-36,36,-17
28891,-96093,14843,0,2045,-36,36,-17
28893,-96093,14843,0,2033,-36,36,-17
28894,-96093,16406,1562,2041,-36,36,-17
28896,-96093,16406,1562,2035,-35,36,-17
28897,-96093,16406,1562,2043,-35,36,-17
28899,-96093,16406,1562,2047,-35,36,-17
28900,-96093,16406,1562,2031,-35,36,-17
28902,-96093,16406,1562,2041,-35,36,-17
28903,-96093,16406,1562,2042,-35,36,-17
28905,-96093,14843,0,2036,-35,36,-17
28906,-96093,14843,0,2036,-34,36,-17
28908,-96093,14843,0,2036,-34,36,-17
28909,-96093,14843,0,2037,-34,36,-17
28911,-96093,14843,0,2027,-34,36,-17
28912,-96093,14843,0,2032,-34,36,-17
28914,-96093,14843,0,2032,-34,36,-17
28915,-97656,15625,0,2032,-34,36,-17
28917,-97656,15625,0,2038,-34,36,-17
28918,-97656,15625,0,2045,-33,36,-17
28920,-97656,15625,0,2042,-33,36,-17
28921,-97656,15625,0,2046,-33,35,-16
28923,-97656,15625,0,2040,-33,35,-16
28924,-96875,15625,-781,2035,-33,35,-16
28926,-96875,15625,-781,2031,-33,35,-16
28927,-96875,15625,-781,2041,-33,35,-16
28929,-96875,15625,-781,2043,-33,35,-16
28930,-96875,15625,-781,2045,-33,35,-16
28932,-96875,15625,-781,2036,-33,35,-16
28933,-96875,15625,-781,2033,-32,35,-16
28935,-97656,14843,0,2038,-32,35,-16
28936,-97656,14843,0,2040,-32,35,-16
28938,-97656,14843,0,2033,-32,35,-16
28940,-97656,14843,0,2048,-32,35,-16
28941,-97656,14843,0,2037,-32,35,-16
28943,-97656,14843,0,2041,-32,35,-16
28944,-96875,14843,0,2042,-32,35,-16
28946,-96875,14843,0,2041,-32,35,-16
28947,-96875,14843,0,2040,-32,35,-16
28949,-96875,14843,0,2031,-31,35,-16
28950,-96875,14843,0,2040,-31,35,-16
28952,-96875,14843,0,2046,-31,35,-15
28953,-96875,14843,0,2037,-31,35,-15
28955,-96875,14843,0,2041,-31,35,-15
28956,-96875,14843,0,2031,-31,35,-15
28958,-96875,14843,0,2043,-31,35,-15
28959,-96875,14843,0,2036,-30,35,-16
28961,-96875,14843,0,2035,-30,35,-16
28962,-96875,14843,0,2031,-30,35,-16
28964,-96875,14843,0,2036,-30,35,-15
28965,-98437,16406,-1562,2031,-30,35,-15
28967,-98437,16406,-1562,2038,-29,35,-15
28968,-98437,16406,-1562,2040,-29,35,-15
28970,-98437,16406,-1562,2032,-29,35,-15
28971,-98437,16406,-1562,2028,-29,35,-15
28973,-98437,16406,-1562,2041,-29,35,-15
28974,-98437,16406,-1562,2041,-29,35,-15
28976,-97656,16406,0,2036,-29,35,-15
28977,-97656,16406,0,2035,-29,35,-15
28979,-97656,16406,0,2036,-29,35,-15
28980,-97656,16406,0,2036,-29,34,-15
28982,-97656,16406,0,2041,-29,34,-15
28983,-97656,16406,0,2046,-28,34,-15
28985,-97656,16406,0,2037,-28,34,-15
28986,-98437,15625,-1562,2031,-28,34,-15
28988,-98437,15625,-1562,2031,-28,34,-15
28989,-98437,15625,-1562,2040,-28,34,-15
28991,-98437,15625,-1562,2031,-28,34,-15
28992,-98437,15625,-1562,2042,-28,34,-15
28994,-98437,15625,-1562,2036,-28,34,-15
28997,-98437,14843,-1562,2042,-28,34,-15
29041,-99218,14062,-2343,2043,-28,34,-15
29042,-99218,14062,-2343,2046,-28,34,-16
29044,-99218,14062,-2343,2038,-28,34,-16
29045,-99218,14062,-2343,2041,-28,34,-16
29047,-100000,14843,-781,2046,-28,34,-16
29048,-100000,14843,-781,2037,-28,33,-16
29050,-100000,14843,-781,2037,-28,33,-16
29051,-100000,14843,-781,2032,-28,33,-16
29053,-100000,14843,-781,2045,-28,33,-16
29054,-100000,14843,-781,2042,-28,33,-16
29056,-100000,14843,-2343,2038,-28,33,-16
29057,-100000,14843,-2343,2037,-28,33,-16
29059,-100000,14843,-2343,2031,-27,33,-16
29060,-100000,14843,-2343,2033,-27,33,-16
29062,-100000,14843,-2343,2043,-27,33,-16
29063,-100000,14843,-2343,2033,-27,33,-16
29065,-100000,14843,-2343,2043,-28,33,-16
29066,-100000,14843,-3125,2045,-28,33,-16
29068,-100000,14843,-3125,2037,-27,33,-16
29069,-100000,14843,-3125,2042,-27,33,-16
29071,-100000,14843,-3125,2042,-27,33,-16
29072,-100000,14843,-3125,2032,-28,33,-16
29074,-100000,14843,-3125,2027,-28,33,-16
29075,-100000,14843,-3125,2035,-28,33,-16
29077,-100781,14843,-3125,2041,-28,33,-16
29078,-100781,14843,-3125,2038,-28,33,-16
29080,-100781,14843,-3125,2035,-28,33,-16
29081,-100781,14843,-3125,2032,-28,33,-16
29083,-100781,14843,-3125,2041,-28,33,-16
29084,-100781,14843,-3125,2053,-28,33,-16
29086,-100781,14843,-3125,2036,-28,33,-16
29087,-100000,13281,-3125,2047,-28,34,-16
29089,-100000,13281,-3125,2035,-28,33,-16
29090,-100000,13281,-3125,2046,-28,33,-16
29092,-100000,13281,-3125,2037,-28,33,-16
29095,-100000,13281,-3125,2042,-29,33,-16
29096,-100781,13281,-3125,2041,-29,33,-16
29098,-100781,13281,-3125,2036,-29,33,-16
29099,-100781,13281,-3125,2041,-28,33,-17
29101,-100781,13281,-3125,2038,-28,34,-17
29102,-100781,13281,-3125,2037,-28,34,-17
29104,-100781,13281,-3125,2042,-28,34,-17
29105,-100781,13281,-3125,2045,-29,33,-17
29107,-100000,13281,-4687,2043,-29,34,-17
29108,-100000,13281,-4687,2031,-29,34,-17
29110,-100000,13281,-4687,2038,-29,34,-17
29111,-100000,13281,-4687,2042,-29,34,-17
29113,-100000,13281,-4687,2043,-29,34,-17
29114,-100000,13281,-4687,2041,-29,33,-17
29116,-100000,13281,-4687,2041,-29,33,-17
29117,-100000,14062,-4687,2040,-29,33,-17
29119,-100000,14062,-4687,2036,-29,33,-17
29120,-100000,14062,-4687,2047,-29,33,-17
29122,-100000,14062,-4687,2040,-29,33,-17
29123,-100000,14062,-4687,2048,-30,33,-17
29125,-100000,14062,-4687,2049,-30,33,-18
29126,-100000,14062,-4687,2033,-30,33,-18
29128,-101562,13281,-3906,2042,-30,33,-18
29129,-101562,13281,-3906,2038,-30,33,-18
29131,-101562,13281,-3906,2033,-30,33,-18
29132,-101562,13281,-3906,2042,-30,33,-18
29134,-101562,13281,-3906,2042,-31,33,-18
29135,-101562,13281,-3906,2036,-31,33,-18
29137,-100781,14062,-3906,2041,-31,33,-18
29138,-100781,14062,-3906,2043,-31,33,-18
29140,-100781,14062,-3906,2042,-31,33,-18
29141,-100781,14062,-3906,2036,-31,33,-18
29143,-100781,14062,-3906,2047,-31,33,-18
29144,-100781,14062,-3906,2035,-31,33,-18
29146,-100781,14062,-3906,2036,-31,33,-18
29167,-101562,13281,-4687,2038,-34,33,-18
29169,-101562,13281,-4687,2042,-34,33,-18
29170,-101562,13281,-4687,2036,-34,33,-18
29172,-101562,13281,-4687,2033,-34,33,-18
29173,-101562,13281,-4687,2040,-34,32,-19
29175,-101562,13281,-4687,2041,-34,32,-19
29176,-101562,13281,-4687,2048,-34,32,-19
29178,-101562,14062,-3906,2042,-34,32,-19
29179,-101562,14062,-3906,2041,-34,32,-19
29181,-101562,14062,-3906,2040,-34,32,-19
29182,-101562,14062,-3906,2040,-35,32,-19
29184,-101562,14062,-3906,2036,-35,32,-19
29185,-101562,14062,-3906,2038,-35,32,-19
29187,-101562,14062,-3906,2036,-35,32,-19
29188,-102343,14062,-3125,2047,-35,33,-19
29190,-102343,14062,-3125,2036,-36,33,-19
29191,-102343,14062,-3125,2048,-36,33,-19
29193,-102343,14062,-3125,2046,-36,33,-19
29194,-102343,14062,-3125,2046,-36,32,-20
29196,-102343,14062,-3125,2045,-36,32,-20
29197,-102343,14062,-3125,2032,-36,32,-20
29199,-102343,12500,-3125,2038,-36,32,-20
29200,-102343,12500,-3125,2036,-37,32,-20
29202,-102343,12500,-3125,2046,-37,32,-20
29203,-102343,12500,-3125,2049,-37,32,-20
29205,-102343,12500,-3125,2049,-37,32,-20
29206,-102343,12500,-3125,2040,-37,32,-20
29208,-103125,13281,-4687,2037,-37,32,-20
29209,-103125,13281,-4687,2041,-37,32,-20
29211,-103125,13281,-4687,2036,-38,32,-21
29212,-103125,13281,-4687,2038,-38,32,-21
29214,-103125,13281,-4687,2043,-38,32,-21
29215,-103125,13281,-4687,2038,-38,32,-21
29217,-103125,13281,-4687,2038,-38,32,-21
29248,-102343,13281,-4687,2041,-41,32,-23
29250,-102343,13281,-4687,2040,-41,32,-23
29251,-102343,13281,-4687,2033,-42,32,-23
29253,-102343,13281,-4687,2028,-42,32,-23
29254,-102343,13281,-4687,2040,-42,31,-23
29256,-102343,13281,-4687,2040,-42,31,-23
29257,-102343,13281,-4687,2035,-42,31,-23
29259,-103125,13281,-4687,2031,-42,31,-23
29260,-103125,13281,-4687,2043,-43,31,-23
29262,-103125,13281,-4687,2032,-43,31,-23
29263,-103125,13281,-4687,2038,-43,31,-23
29265,-103125,13281,-4687,2028,-43,31,-23
29266,-103125,13281,-4687,2033,-43,31,-23
29268,-103125,13281,-4687,2040,-43,31,-23
29269,-103125,12500,-3906,2045,-43,31,-23
29271,-103125,12500,-3906,2036,-43,31,-23
29272,-103125,12500,-3906,2036,-44,31,-23
29274,-103125,12500,-3906,2033,-44,31,-23
29275,-103125,12500,-3906,2041,-44,30,-23
29277,-103125,12500,-3906,2042,-44,30,-24
29278,-103125,12500,-3906,2040,-44,30,-24
29280,-103125,13281,-5468,2041,-45,30,-24
29281,-103125,13281,-5468,2043,-45,30,-24
29283,-103125,13281,-5468,2028,-45,30,-24
29284,-103125,13281,-5468,2037,-45,30,-24
29285,-103125,13281,-5468,2041,-45,30,-24
29287,-103125,13281,-5468,2037,-46,30,-24
29288,-103125,13281,-4687,2047,-46,30,-24
29290,-103125,13281,-4687,2045,-46,30,-24
29292,-103125,13281,-4687,2028,-47,30,-24
29293,-103125,13281,-4687,2033,-47,30,-24
29295,-103125,13281,-4687,2032,-47,30,-25
29296,-103125,13281,-4687,2035,-47,30,-25
29298,-103125,13281,-4687,2037,-47,30,-25
29299,-103125,13281,-5468,2035,-47,30,-25
29316,-103125,12500,-3906,2041,-49,30,-25
29318,-103125,12500,-3906,2041,-49,30,-25
29319,-103125,12500,-3906,2035,-50,30,-25
29321,-103125,12500,-3906,2048,-50,30,-25
29322,-103125,12500,-3906,2036,-50,30,-25
29324,-103125,12500,-3906,2036,-50,30,-25
29325,-103125,12500,-3906,2047,-51,30,-25
29327,-103125,12500,-3906,2041,-51,30,-25
29328,-103125,12500,-3906,2042,-51,30,-25
29330,-102343,11718,-4687,2042,-51,30,-26
29331,-102343,11718,-4687,2042,-51,30,-26
29333,-102343,11718,-4687,2038,-51,30,-26
29334,-102343,11718,-4687,2041,-51,30,-26
29336,-102343,11718,-4687,2043,-52,30,-25
29337,-102343,11718,-4687,2038,-52,30,-26
29339,-102343,11718,-4687,2046,-52,30,-26
29340,-103125,13281,-4687,2047,-52,31,-26
29342,-103125,13281,-4687,2032,-53,30,-26
29343,-103125,13281,-4687,2043,-53,31,-26
29345,-103125,13281,-4687,2047,-53,31,-26
29346,-103125,13281,-4687,2040,-53,31,-26
29348,-103125,13281,-4687,2041,-53,31,-26
29349,-103906,14062,-4687,2046,-53,31,-27
29351,-103906,14062,-4687,2046,-53,31,-27
29352,-103906,14062,-4687,2041,-54,31,-27
29354,-103906,14062,-4687,2049,-54,31,-27
29355,-103906,14062,-4687,2045,-54,31,-27
29357,-103906,14062,-4687,2040,-54,31,-27
29358,-103906,14062,-4687,2037,-54,31,-27
29360,-103125,12500,-3906,2031,-54,31,-27
29361,-103125,12500,-3906,2038,-54,31,-27
29363,-103125,12500,-3906,2030,-54,31,-27
29364,-103125,12500,-3906,2045,-55,31,-27
29366,-103125,12500,-3906,2031,-55,31,-28
29367,-103125,12500,-3906,2043,-55,30,-28
29411,-102343,12500,-4687,2028,-60,30,-30
29413,-102343,12500,-4687,2028,-60,30,-30
29414,-102343,12500,-4687,2043,-60,30,-30
29416,-102343,12500,-4687,2046,-61,30,-30
29417,-102343,12500,-4687,2045,-61,30,-30
29419,-102343,12500,-4687,2043,-61,30,-30
29420,-102343,13281,-3906,2041,-61,29,-31
29422,-102343,13281,-3906,2041,-61,29,-31
29423,-102343,13281,-3906,2036,-61,29,-31
29425,-102343,13281,-3906,2037,-62,29,-31
29426,-102343,13281,-3906,2046,-62,29,-31
29428,-102343,13281,-3906,2030,-62,29,-31
29429,-102343,13281,-3906,2036,-62,29,-31
29431,-102343,11718,-3125,2035,-62,29,-31
29432,-102343,11718,-3125,2036,-63,29,-31
29434,-102343,11718,-3125,2042,-63,29,-31
29435,-102343,11718,-3125,2046,-63,29,-32
29437,-102343,11718,-3125,2041,-63,29,-32
29438,-102343,11718,-3125,2046,-63,29,-32
29440,-102343,11718,-3125,2036,-63,29,-32
29441,-102343,13281,-3906,2047,-63,29,-32
29443,-102343,13281,-3906,2041,-64,29,-32
29444,-102343,13281,-3906,2036,-64,29,-32
29446,-102343,13281,-3906,2036,-64,29,-32
29447,-102343,13281,-3906,2036,-64,29,-32
29449,-102343,13281,-3906,2041,-64,29,-32
29450,-101562,12500,-4687,2051,-64,29,-33
29452,-101562,12500,-4687,2045,-64,29,-33
29453,-101562,12500,-4687,2049,-65,29,-33
29455,-101562,12500,-4687,2036,-65,29,-33
29456,-101562,12500,-4687,2033,-65,29,-33
29458,-101562,12500,-4687,2038,-65,29,-33
29459,-101562,12500,-4687,2049,-65,29,-33
29461,-102343,12500,-2343,2040,-65,29,-33
29462,-102343,12500,-2343,2043,-65,29,-33
29465,-102343,12500,-2343,2051,-66,29,-33
29467,-102343,12500,-2343,2041,-66,29,-33
29469,-102343,12500,-2343,2037,-66,29,-33
29470,-102343,12500,-2343,2049,-66,29,-33
29472,-102343,13281,-5468,2048,-66,29,-33
